id,noticeNumber,lotNumber,lotStatus,biddType,biddForm,lotName,lotDescription,biddEndTime,lotImages,currencyCode,category,createDate,timeZoneName,timezoneOffset,hasAppeals,isStopped,isAnnulled,noticeFirstVersionPublicationDate,npaHintCode,typeTransaction,priceMin,etpCode,noticeAttributes,lotVat,parentProcedure,subject,rent_period,area,cadastral_number,link,rosreestr_info,coords_center,address,auction_start_date,bidd_start_date,auction_link,price_step,deposit_price,files,cad_link
23000036640000000113_1,23000036640000000113,1,PUBLISHED,Аренда и продажа земельных участков,Сообщение о предоставлении (реализации),Земельный участок,"Информация о праве граждан, заинтересованных в предоставлении земельного участка, подавать заявления о намерении участвовать в аукционе на право заключения договора аренды земельного участка",2025-02-12 17:00:00+00:00,https://torgi.gov.ru/new/file-store/v1/67850d0b1b9769662dafd0cf?disposition=inline,643,Земли населенных пунктов,2025-01-13 16:55:39.365000+00:00,МСК+1,240,False,False,False,2025-01-13T12:55:58.191Z,hint1_ZK,sale,,,,,,Астраханская область,,148.0,30:07:240102:1988,https://torgi.gov.ru/new/public/lots/lot/23000036640000000113_1,"([45.786524627351966, 47.21543868829756], 'Астраханская обл., р-н Лиманский, п. Лиман, ул. Космонавтов, 43/4')","[45.786524627351966, 47.21543868829756]","Астраханская обл., р-н Лиманский, п. Лиман, ул. Космонавтов, 43/4",,2025-01-14 08:00:00+00:00,,,,"[('схема2.png', 'https://torgi.gov.ru/new/file-store/v1/67850d13518afa60ddf21e42'), ('схема1.png', 'https://torgi.gov.ru/new/file-store/v1/67850d0b1b9769662dafd0cf')]","https://pkk.rosreestr.ru/#/search/47.21543868829756,45.786524627351966/19/@5w3tqw5ca?text=30:7:240102:1988&opened=30:7:240102:1988"
22000099550000000035_1,22000099550000000035,1,APPLICATIONS_SUBMISSION,Аренда и продажа земельных участков,Сообщение о предоставлении (реализации),земельный участок,земельный участок свободный от прав третьих лиц,2025-02-14 00:00:00+00:00,https://torgi.gov.ru/new/file-store/v1/6784bf821754143a1cb8222c?disposition=inline,643,Земли населенных пунктов,2025-01-13 11:27:30.564000+00:00,МСК+1,240,False,False,False,2025-01-13T07:27:53.401Z,hint1_ZK,sale,,,,,,Астраханская область,,1000.0,30:04:020206:424,https://torgi.gov.ru/new/public/lots/lot/22000099550000000035_1,"([46.254363434416625, 47.912613082322245], 'Астраханская область, Икрянинский район, рабочий поселок Ильинка, ул. Василия Кудинова, 8')","[46.254363434416625, 47.912613082322245]","Астраханская область, Икрянинский район, рабочий поселок Ильинка, ул. Василия Кудинова, 8",,2025-01-14 00:00:00+00:00,,,,"[('2025-01-13_11-23-28.png', 'https://torgi.gov.ru/new/file-store/v1/6784bf821754143a1cb8222c')]","https://pkk.rosreestr.ru/#/search/47.912613082322245,46.254363434416625/19/@5w3tqw5ca?text=30:4:20206:424&opened=30:4:20206:424"
22000099550000000035_2,22000099550000000035,2,APPLICATIONS_SUBMISSION,Аренда и продажа земельных участков,Сообщение о предоставлении (реализации),земельный участок,свободный от прав третьих лиц,2025-02-14 00:00:00+00:00,https://torgi.gov.ru/new/file-store/v1/6784c053029b367c71259a63?disposition=inline,643,Земли населенных пунктов,2025-01-13 11:27:30.564000+00:00,МСК+1,240,False,False,False,2025-01-13T07:27:53.401Z,hint1_ZK,sale,,,,,,Астраханская область,,1000.0,30:04:020206:397,https://torgi.gov.ru/new/public/lots/lot/22000099550000000035_2,"([46.25454355208449, 47.9126275508967], 'Астраханская область, муниципальный  район Икрянинский, рабочий поселок Ильинка, ул. Василия Кудинова, 6')","[46.25454355208449, 47.9126275508967]","Астраханская область, муниципальный  район Икрянинский, рабочий поселок Ильинка, ул. Василия Кудинова, 6",,2025-01-14 00:00:00+00:00,,,,"[('2025-01-13_11-26-57.png', 'https://torgi.gov.ru/new/file-store/v1/6784c053029b367c71259a63')]","https://pkk.rosreestr.ru/#/search/47.9126275508967,46.25454355208449/19/@5w3tqw5ca?text=30:4:20206:397&opened=30:4:20206:397"
22000021310000000552_1,22000021310000000552,1,APPLICATIONS_SUBMISSION,Аренда и продажа земельных участков,Электронный аукцион,стоимость земельного участка,от 09.01.2025 №КУВИ-001/2025-3625327,2025-02-17 17:00:00+00:00,https://torgi.gov.ru/new/file-store/v1/67810bd526093e159b4bba71?disposition=inline,643,Земли населенных пунктов,2025-01-10 16:02:51.090000+00:00,МСК+1,240,False,False,False,2025-01-10T12:03:11.643Z,hint1_ZK,sale,247000.0,ETP_AVK,"[{'code': 'DA_tradingFeatures_EA(ZK)', 'fullName': 'Торги проводятся с учетом особенностей в соответствии с 161-ФЗ от 24.07.2008 «О содействии развитию жилищного строительства»', 'value': False, 'attributeType': 'Checker', 'group': {'code': 'N250', 'name': '1.2 Извещение_основные_сведения', 'displayGroupType': 'NOTICE'}, 'sortOrder': 1}]","{'code': 'notAssessedVAT', 'name': 'НДС не облагается'}",,Астраханская область,,1000.0,30:05:030104:232,https://torgi.gov.ru/new/public/lots/lot/22000021310000000552_1,"([46.17311255721748, 47.964922714369436], 'Астраханская область, Камызякский муниципальный район, сельское поселение Чаганский сельсовет, с. Чаган, ул. Дачная, з/у 23Д')","[46.17311255721748, 47.964922714369436]","Астраханская область, Камызякский муниципальный район, сельское поселение Чаганский сельсовет, с. Чаган, ул. Дачная, з/у 23Д",2025-02-20 11:00:00+00:00,2025-01-13 10:00:00+00:00,http://sale.zakazrf.ru/NotificationEXLot/id/64338,7000.0,123000.0,"[('схема.jpg', 'https://torgi.gov.ru/new/file-store/v1/67810bd526093e159b4bba71')]","https://pkk.rosreestr.ru/#/search/47.964922714369436,46.17311255721748/19/@5w3tqw5ca?text=30:5:30104:232&opened=30:5:30104:232"
22000021310000000551_1,22000021310000000551,1,APPLICATIONS_SUBMISSION,Аренда и продажа земельных участков,Электронный аукцион,стоимость земельного участка,от 09.01.2025 №КУВИ-001/2025-3625313,2025-02-14 17:00:00+00:00,https://torgi.gov.ru/new/file-store/v1/678104c7029b367c7124b766?disposition=inline,643,Земли населенных пунктов,2025-01-10 15:34:33.704000+00:00,МСК+1,240,False,False,False,2025-01-10T11:34:58.473Z,hint1_ZK,sale,247000.0,ETP_AVK,"[{'code': 'DA_tradingFeatures_EA(ZK)', 'fullName': 'Торги проводятся с учетом особенностей в соответствии с 161-ФЗ от 24.07.2008 «О содействии развитию жилищного строительства»', 'value': False, 'attributeType': 'Checker', 'group': {'code': 'N250', 'name': '1.2 Извещение_основные_сведения', 'displayGroupType': 'NOTICE'}, 'sortOrder': 1}]","{'code': 'notAssessedVAT', 'name': 'НДС не облагается'}",,Астраханская область,,1000.0,30:05:030104:231,https://torgi.gov.ru/new/public/lots/lot/22000021310000000551_1,"([46.17319142803889, 47.96523244130523], 'Астраханская область, Камызякский муниципальный район, сельское поселение Чаганский сельсовет, с. Чаган, ул. Дачная, з/у 23В')","[46.17319142803889, 47.96523244130523]","Астраханская область, Камызякский муниципальный район, сельское поселение Чаганский сельсовет, с. Чаган, ул. Дачная, з/у 23В",2025-02-18 11:00:00+00:00,2025-01-13 10:00:00+00:00,http://sale.zakazrf.ru/NotificationEXLot/id/64337,7000.0,123000.0,"[('схема.jpg', 'https://torgi.gov.ru/new/file-store/v1/678104c7029b367c7124b766')]","https://pkk.rosreestr.ru/#/search/47.96523244130523,46.17319142803889/19/@5w3tqw5ca?text=30:5:30104:231&opened=30:5:30104:231"
22000021310000000550_1,22000021310000000550,1,APPLICATIONS_SUBMISSION,Аренда и продажа земельных участков,Электронный аукцион,стоимость земельного участка,09.01.2025 №КУВИ-001/2025-3625320,2025-02-10 17:00:00+00:00,https://torgi.gov.ru/new/file-store/v1/6780f6d7d09dc15042a38025?disposition=inline,643,Земли населенных пунктов,2025-01-10 14:37:30.588000+00:00,МСК+1,240,False,False,False,2025-01-10T10:37:54.685Z,hint1_ZK,sale,189000.0,ETP_AVK,"[{'code': 'DA_tradingFeatures_EA(ZK)', 'fullName': 'Торги проводятся с учетом особенностей в соответствии с 161-ФЗ от 24.07.2008 «О содействии развитию жилищного строительства»', 'value': False, 'attributeType': 'Checker', 'group': {'code': 'N250', 'name': '1.2 Извещение_основные_сведения', 'displayGroupType': 'NOTICE'}, 'sortOrder': 1}]","{'code': 'notAssessedVAT', 'name': 'НДС не облагается'}",,Астраханская область,,763.0,30:05:030102:201,https://torgi.gov.ru/new/public/lots/lot/22000021310000000550_1,"([46.176651045158785, 47.9800180984306], 'Астраханская область, Камызякский муниципальный район, сельское поселение Чаганский сельсовет, с.Чаган, ул.Студенческая, з/у 37 ')","[46.176651045158785, 47.9800180984306]","Астраханская область, Камызякский муниципальный район, сельское поселение Чаганский сельсовет, с.Чаган, ул.Студенческая, з/у 37 ",2025-02-13 11:00:00+00:00,2025-01-11 10:00:00+00:00,http://sale.zakazrf.ru/NotificationEXLot/id/64330,5000.0,94000.0,"[('схема.jpg', 'https://torgi.gov.ru/new/file-store/v1/6780f6d7d09dc15042a38025')]","https://pkk.rosreestr.ru/#/search/47.9800180984306,46.176651045158785/19/@5w3tqw5ca?text=30:5:30102:201&opened=30:5:30102:201"
23000049640000000071_1,23000049640000000071,1,APPLICATIONS_SUBMISSION,Аренда и продажа земельных участков,Электронный аукцион,Право заключения договора аренды земельного участка,"Земельный участок площадью 600 кв.м., расположенный по адресу: Астраханская область, г. Астрахань, Трусовский район, ул. Пушкина, с кадастровым номером  30:12:040672:260 с видом разрешенного использования - для индивидуального жилищного строительства",2025-02-06 12:00:00+00:00,"https://torgi.gov.ru/new/file-store/v1/6780bb6b029b367c71241cba?disposition=inline, https://torgi.gov.ru/new/file-store/v1/6780bb7ad09dc15042a32ff5?disposition=inline",643,Земли населенных пунктов,2025-01-10 09:59:51.969000+00:00,МСК+1,240,False,False,False,2025-01-10T07:08:46.21Z,hint1_ZK,rent,100800.0,ETP_SBAST,"[{'code': 'DA_tradingFeatures_EA(ZK)', 'fullName': 'Торги проводятся с учетом особенностей в соответствии с 161-ФЗ от 24.07.2008 «О содействии развитию жилищного строительства»', 'value': False, 'attributeType': 'Checker', 'group': {'code': 'N250', 'name': '1.2 Извещение_основные_сведения', 'displayGroupType': 'NOTICE'}, 'sortOrder': 1}]","{'code': 'notAssessedVAT', 'name': 'НДС не облагается'}",,Астраханская область,20 лет,600.0,30:12:040672:260,https://torgi.gov.ru/new/public/lots/lot/23000049640000000071_1,"([46.37297111951638, 47.99836943158512], 'Российская Федерация, Астраханская область, г Астрахань, Трусовский район, ул Пушкина')","[46.37297111951638, 47.99836943158512]","Российская Федерация, Астраханская область, г Астрахань, Трусовский район, ул Пушкина",2025-02-10 10:00:00+00:00,2025-01-10 12:00:00+00:00,https://utp.sberbank-ast.ru/AP/NBT/PurchaseView/21/0/0/2680791,3000.0,50400.0,"[('Чертеж градостроительного плана ул. Пушкина.png', 'https://torgi.gov.ru/new/file-store/v1/6780bb941754143a1cb69f33'), ('ЕГРН ул. Пушкина.pdf', 'https://torgi.gov.ru/new/file-store/v1/6780bbae029b367c71241cff'), ('Акт №606 от 19.11.2024.pdf', 'https://torgi.gov.ru/new/file-store/v1/6780bbc2d09dc15042a33021'), ('Изображение ул. Пушкина.png', 'https://torgi.gov.ru/new/file-store/v1/6780bb6b029b367c71241cba'), ('Фото ул. Пушкина.png', 'https://torgi.gov.ru/new/file-store/v1/6780bb7ad09dc15042a32ff5')]","https://pkk.rosreestr.ru/#/search/47.99836943158512,46.37297111951638/19/@5w3tqw5ca?text=30:12:40672:260&opened=30:12:40672:260"
23000049640000000071_2,23000049640000000071,2,APPLICATIONS_SUBMISSION,Аренда и продажа земельных участков,Электронный аукцион,Право заключения договора аренды земельного участка,"Земельный участок площадью 712 кв.м., расположенный по адресу: Астраханская область, г. Астрахань, Трусовский район, ул. Ремонтная, с кадастровым номером  30:12:040083:2345 с видом разрешенного использования - для индивидуального жилищного строительства",2025-02-06 12:00:00+00:00,"https://torgi.gov.ru/new/file-store/v1/6780bce526093e159b4b3b9f?disposition=inline, https://torgi.gov.ru/new/file-store/v1/6780bcf5029b367c71241dfd?disposition=inline, https://torgi.gov.ru/new/file-store/v1/6780bcfb26093e159b4b3bb4?disposition=inline, https://torgi.gov.ru/new/file-store/v1/6780bd061754143a1cb6a015?disposition=inline",643,Земли населенных пунктов,2025-01-10 09:59:51.969000+00:00,МСК+1,240,False,False,False,2025-01-10T07:08:46.21Z,hint1_ZK,rent,82600.0,ETP_SBAST,"[{'code': 'DA_tradingFeatures_EA(ZK)', 'fullName': 'Торги проводятся с учетом особенностей в соответствии с 161-ФЗ от 24.07.2008 «О содействии развитию жилищного строительства»', 'value': False, 'attributeType': 'Checker', 'group': {'code': 'N250', 'name': '1.2 Извещение_основные_сведения', 'displayGroupType': 'NOTICE'}, 'sortOrder': 1}]","{'code': 'notAssessedVAT', 'name': 'НДС не облагается'}",,Астраханская область,20 лет,712.0,30:12:040083:2345,https://torgi.gov.ru/new/public/lots/lot/23000049640000000071_2,"([46.46160270147315, 47.958881917506496], 'Астраханская область, г. Астрахань, Трусовский район, ул Ремонтная')","[46.46160270147315, 47.958881917506496]","Астраханская область, г. Астрахань, Трусовский район, ул Ремонтная",2025-02-10 10:00:00+00:00,2025-01-10 12:00:00+00:00,https://utp.sberbank-ast.ru/AP/NBT/PurchaseView/21/0/0/2680791,2450.0,41300.0,"[('Акт №607 от 19.11.2024.pdf', 'https://torgi.gov.ru/new/file-store/v1/6780bd40029b367c71241e2f'), ('ЕГРН ул. Ремонтная.pdf', 'https://torgi.gov.ru/new/file-store/v1/6780bd6326093e159b4b3bfd'), ('Чертёж градостроительного плана ул. Ремонтная.pdf', 'https://torgi.gov.ru/new/file-store/v1/6780bd98d09dc15042a3312c'), ('Изображение ул. Ремонтная.png', 'https://torgi.gov.ru/new/file-store/v1/6780bce526093e159b4b3b9f'), ('Фото ул. Ремонтная.png', 'https://torgi.gov.ru/new/file-store/v1/6780bcf5029b367c71241dfd'), ('Фото ул. Ремонтная 2.png', 'https://torgi.gov.ru/new/file-store/v1/6780bcfb26093e159b4b3bb4'), ('Фото ул. Ремонтная 1.png', 'https://torgi.gov.ru/new/file-store/v1/6780bd061754143a1cb6a015')]","https://pkk.rosreestr.ru/#/search/47.958881917506496,46.46160270147315/19/@5w3tqw5ca?text=30:12:40083:2345&opened=30:12:40083:2345"
21000022190000000245_4,21000022190000000245,4,APPLICATIONS_SUBMISSION,Аренда лесных участков и продажа лесных насаждений,Электронный аукцион,Введение сельского хозяйства (выпас сельскохозяйственных животных),"Право на заключение договора аренды лесного участка, находящегося в государственной собственности",2025-02-02 15:00:00+00:00,https://torgi.gov.ru/new/file-store/v1/676fe4df1754143a1cb404ec?disposition=inline,643,Земли лесного фонда,2024-12-28 16:35:01.865000+00:00,МСК+1,240,False,False,False,2024-12-28T12:48:49.131Z,hint1_200FZ,rent,43767.66,ETP_SBAST,,"{'code': 'excludingVAT', 'name': 'Без учета НДС'}",,Астраханская область,,1402788.0,30:11:020201:119,https://torgi.gov.ru/new/public/lots/lot/21000022190000000245_4,"([55.3954602540604, 43.83969627553176], nan)","[55.3954602540604, 43.83969627553176]",,2025-02-09 09:00:00+00:00,2025-01-01 09:00:00+00:00,https://utp.sberbank-ast.ru/AP/NBT/PurchaseView/13/0/0/2661796,2188.38,43767.66,"[('Выписка.pdf', 'https://torgi.gov.ru/new/file-store/v1/676fe4e326093e159b493c93'), ('ПД.pdf', 'https://torgi.gov.ru/new/file-store/v1/676fe4e926093e159b493c9f'), ('Проект.docx', 'https://torgi.gov.ru/new/file-store/v1/676fe4eed09dc15042a11ad1'), ('Картинка.jpg', 'https://torgi.gov.ru/new/file-store/v1/676fe4df1754143a1cb404ec')]","https://pkk.rosreestr.ru/#/search/43.83969627553176,55.3954602540604/19/@5w3tqw5ca?text=30:11:20201:119&opened=30:11:20201:119"
21000022190000000245_8,21000022190000000245,8,APPLICATIONS_SUBMISSION,Аренда лесных участков и продажа лесных насаждений,Электронный аукцион,Для осуществления рекреационной деятельности,"Право на заключение договора аренды лесного участка, находящегося в государственной собственности",2025-02-02 15:00:00+00:00,https://torgi.gov.ru/new/file-store/v1/676fe9c8d09dc15042a11dc7?disposition=inline,643,Земли лесного фонда,2024-12-28 16:35:01.865000+00:00,МСК+1,240,False,False,False,2024-12-28T12:48:49.131Z,hint1_200FZ,rent,49147.17,ETP_SBAST,,"{'code': 'excludingVAT', 'name': 'Без учета НДС'}",,Астраханская область,,3470.0,30:05:100202:252,https://torgi.gov.ru/new/public/lots/lot/21000022190000000245_8,"([46.03943935231055, 48.09833441677263], 'Российская Федерация, Астраханская область, Камызякский район, Западнодельтовое леснйчество В границах Камызякского административного района, Камызякское участковое лесничество, квартал 56 выделы 38ч.,41ч.')","[46.03943935231055, 48.09833441677263]","Российская Федерация, Астраханская область, Камызякский район, Западнодельтовое леснйчество В границах Камызякского административного района, Камызякское участковое лесничество, квартал 56 выделы 38ч.,41ч.",2025-02-09 09:00:00+00:00,2025-01-01 09:00:00+00:00,https://utp.sberbank-ast.ru/AP/NBT/PurchaseView/13/0/0/2661796,2457.35,49147.17,"[('выписка.pdf', 'https://torgi.gov.ru/new/file-store/v1/676fe9cc029b367c71218c0d'), ('ПД 252.pdf', 'https://torgi.gov.ru/new/file-store/v1/676fe9d01754143a1cb408db'), ('проект.docx', 'https://torgi.gov.ru/new/file-store/v1/676fe9d426093e159b493f20'), ('Картинка.jpg', 'https://torgi.gov.ru/new/file-store/v1/676fe9c8d09dc15042a11dc7')]","https://pkk.rosreestr.ru/#/search/48.09833441677263,46.03943935231055/19/@5w3tqw5ca?text=30:5:100202:252&opened=30:5:100202:252"
21000022190000000245_2,21000022190000000245,2,APPLICATIONS_SUBMISSION,Аренда лесных участков и продажа лесных насаждений,Электронный аукцион,Введение сельского хозяйства (выпас сельскохозяйственных животных),"Право на заключение договора аренды лесного участка, находящегося в государственной собственности",2025-02-02 15:00:00+00:00,https://torgi.gov.ru/new/file-store/v1/676fe18cd09dc15042a1185a?disposition=inline,643,Земли лесного фонда,2024-12-28 16:35:01.865000+00:00,МСК+1,240,False,False,False,2024-12-28T12:48:49.131Z,hint1_200FZ,rent,20400.56,ETP_SBAST,,"{'code': 'excludingVAT', 'name': 'Без учета НДС'}",,Астраханская область,,653854.0,30:11:000000:698,https://torgi.gov.ru/new/public/lots/lot/21000022190000000245_2,"([48.107667622548696, 46.105073512270145], 'Астраханская область, Правобережное лесничество в границах Черноярского административного района, Черноярское участковое лесничество, квартал 60 выделы 1-4, 9-11, 13-15, 17-26, 28-38, 40, 41')","[48.107667622548696, 46.105073512270145]","Астраханская область, Правобережное лесничество в границах Черноярского административного района, Черноярское участковое лесничество, квартал 60 выделы 1-4, 9-11, 13-15, 17-26, 28-38, 40, 41",2025-02-09 09:00:00+00:00,2025-01-01 09:00:00+00:00,https://utp.sberbank-ast.ru/AP/NBT/PurchaseView/13/0/0/2661796,1020.02,20400.56,"[('выписка лот 2.pdf', 'https://torgi.gov.ru/new/file-store/v1/676fe1cc26093e159b49393c'), ('ПДЛУ лот 2.pdf', 'https://torgi.gov.ru/new/file-store/v1/676fe1d81754143a1cb400c3'), ('Проект.docx', 'https://torgi.gov.ru/new/file-store/v1/676fe1e2d09dc15042a11871'), ('IMG_20240814_111558~2.jpg', 'https://torgi.gov.ru/new/file-store/v1/676fe18cd09dc15042a1185a')]","https://pkk.rosreestr.ru/#/search/46.105073512270145,48.107667622548696/19/@5w3tqw5ca?text=30:11:0:698&opened=30:11:0:698"
21000022190000000245_6,21000022190000000245,6,APPLICATIONS_SUBMISSION,Аренда лесных участков и продажа лесных насаждений,Электронный аукцион,Введение сельского хозяйства (выпас сельскохозяйственных животных),"Право на заключение договора аренды лесного участка, находящегося в государственной собственности",2025-02-02 15:00:00+00:00,https://torgi.gov.ru/new/file-store/v1/676fe7ac1754143a1cb40680?disposition=inline,643,Земли лесного фонда,2024-12-28 16:35:01.865000+00:00,МСК+1,240,False,False,False,2024-12-28T12:48:49.131Z,hint1_200FZ,rent,17888.79,ETP_SBAST,,"{'code': 'excludingVAT', 'name': 'Без учета НДС'}",,Астраханская область,,573350.0,30:00:000000:33343,https://torgi.gov.ru/new/public/lots/lot/21000022190000000245_6,"([47.290105344380294, 47.092769198507895], 'Астраханская область, Правобережное лесничество в границах Енотаевского административного района, Енотаевское участковое лесничество, квартал 65 выделы 28, 40, квартал 66 выдел 9')","[47.290105344380294, 47.092769198507895]","Астраханская область, Правобережное лесничество в границах Енотаевского административного района, Енотаевское участковое лесничество, квартал 65 выделы 28, 40, квартал 66 выдел 9",2025-02-09 09:00:00+00:00,2025-01-01 09:00:00+00:00,https://utp.sberbank-ast.ru/AP/NBT/PurchaseView/13/0/0/2661796,894.43,17888.79,"[('Выписка.pdf', 'https://torgi.gov.ru/new/file-store/v1/676fe7b7029b367c71218a7d'), ('ПД.pdf', 'https://torgi.gov.ru/new/file-store/v1/676fe7bc1754143a1cb4068e'), ('Проект.docx', 'https://torgi.gov.ru/new/file-store/v1/676fe7bf029b367c71218a84'), ('картинка.jpg', 'https://torgi.gov.ru/new/file-store/v1/676fe7ac1754143a1cb40680')]","https://pkk.rosreestr.ru/#/search/47.092769198507895,47.290105344380294/19/@5w3tqw5ca?text=30:0:0:33343&opened=30:0:0:33343"
21000022190000000245_5,21000022190000000245,5,APPLICATIONS_SUBMISSION,Аренда лесных участков и продажа лесных насаждений,Электронный аукцион,Введение сельского хозяйства (выпас сельскохозяйственных животных),"Право на заключение договора аренды лесного участка, находящегося в государственной собственности",2025-02-02 15:00:00+00:00,"https://torgi.gov.ru/new/file-store/v1/676fe67e029b367c712188f7?disposition=inline, https://torgi.gov.ru/new/file-store/v1/676fe682029b367c712188fd?disposition=inline, https://torgi.gov.ru/new/file-store/v1/676fe686d09dc15042a11bbe?disposition=inline, https://torgi.gov.ru/new/file-store/v1/676fe6891754143a1cb405d8?disposition=inline, https://torgi.gov.ru/new/file-store/v1/676fe68e1754143a1cb405df?disposition=inline, https://torgi.gov.ru/new/file-store/v1/676fe6951754143a1cb405e5?disposition=inline, https://torgi.gov.ru/new/file-store/v1/676fe69f029b367c71218908?disposition=inline, https://torgi.gov.ru/new/file-store/v1/676fe6a326093e159b493d37?disposition=inline, https://torgi.gov.ru/new/file-store/v1/676fe6a6029b367c7121890c?disposition=inline, https://torgi.gov.ru/new/file-store/v1/676fe6aa029b367c71218915?disposition=inline, https://torgi.gov.ru/new/file-store/v1/676fe6ad26093e159b493d41?disposition=inline",643,Земли лесного фонда,2024-12-28 16:35:01.865000+00:00,МСК+1,240,False,False,False,2024-12-28T12:48:49.131Z,hint1_200FZ,rent,355809.84,ETP_SBAST,,"{'code': 'excludingVAT', 'name': 'Без учета НДС'}",,Астраханская область,,11403986,30:11:020201:120,https://torgi.gov.ru/new/public/lots/lot/21000022190000000245_5,"([48.459840933220576, 45.438435029104596], 'Российская Федерация, Астраханская область, Черноярский р-н, Правобережное лесничество в границах Черноярского административного района, Солодниковское участковое лесничество, квартал 45 выделы 1-1З,16,17,19, квартал 46 выделы 1-4,6-8, 10-12,14,16,17, квартал 47 выделы 1-6,8,9, квартал 48 выделы 1-З,5-9,12,13,15-17,19, квартал 49 выделы 1,2,4,5,7-12,14,16,18,20,2З,24,27,29,З0,ЗЗ,З5, квартал 50 выделы 3-8,10-20,22, квартал 51 выделы 1-12,14, квартал 52 выделы 1-3,5-12,14,16,18,20, квартал 53 выделы 1-6,8,11-18,21,22,24, квартал 54 выделы 1-8, 10-22,24,26, квартал 55 выделы 2,3,5-14,16-18,20-22,26,28, квартал 56 выделы 1-16,18, квартал 57 выделы 1,4,7,8,10-13,18,19, квартал 58 выделы 2,4,5,6,8-11,13,14,16-19, квартал 59 выделы 1,2,3ч.,4ч.,5ч.,7,10ч.,11,12,1Зч.,15,16,17ч.,18ч., квартал 60 выделы 1-11,13,14,18,19, квартал 62 выделы 1-7,9-14, квартал 63 выделы 1ч.,2ч.,3, 4ч., 5-10, 11ч.,12ч.,13,14,15ч.,16ч.,17-25, квартал 67 выделы 1,2ч.,3ч.,4ч.,5- 9,11-20, квартал 68 выделы 1,2,3,5,6,8, квартал 69 выделы 1-7,9-14 ')","[48.459840933220576, 45.438435029104596]","Российская Федерация, Астраханская область, Черноярский р-н, Правобережное лесничество в границах Черноярского административного района, Солодниковское участковое лесничество, квартал 45 выделы 1-1З,16,17,19, квартал 46 выделы 1-4,6-8, 10-12,14,16,17, квартал 47 выделы 1-6,8,9, квартал 48 выделы 1-З,5-9,12,13,15-17,19, квартал 49 выделы 1,2,4,5,7-12,14,16,18,20,2З,24,27,29,З0,ЗЗ,З5, квартал 50 выделы 3-8,10-20,22, квартал 51 выделы 1-12,14, квартал 52 выделы 1-3,5-12,14,16,18,20, квартал 53 выделы 1-6,8,11-18,21,22,24, квартал 54 выделы 1-8, 10-22,24,26, квартал 55 выделы 2,3,5-14,16-18,20-22,26,28, квартал 56 выделы 1-16,18, квартал 57 выделы 1,4,7,8,10-13,18,19, квартал 58 выделы 2,4,5,6,8-11,13,14,16-19, квартал 59 выделы 1,2,3ч.,4ч.,5ч.,7,10ч.,11,12,1Зч.,15,16,17ч.,18ч., квартал 60 выделы 1-11,13,14,18,19, квартал 62 выделы 1-7,9-14, квартал 63 выделы 1ч.,2ч.,3, 4ч., 5-10, 11ч.,12ч.,13,14,15ч.,16ч.,17-25, квартал 67 выделы 1,2ч.,3ч.,4ч.,5- 9,11-20, квартал 68 выделы 1,2,3,5,6,8, квартал 69 выделы 1-7,9-14 ",2025-02-09 09:00:00+00:00,2025-01-01 09:00:00+00:00,https://utp.sberbank-ast.ru/AP/NBT/PurchaseView/13/0/0/2661796,17790.49,355809.84,"[('Выписка.pdf', 'https://torgi.gov.ru/new/file-store/v1/676fe6b2029b367c7121891e'), ('ПД.pdf', 'https://torgi.gov.ru/new/file-store/v1/676fe6c1029b367c71218995'), ('Проект.docx', 'https://torgi.gov.ru/new/file-store/v1/676fe6c8029b367c712189eb'), ('Документ Microsoft Word (1)-изображения-0.jpg', 'https://torgi.gov.ru/new/file-store/v1/676fe67e029b367c712188f7'), ('Документ Microsoft Word (1)-изображения-1.jpg', 'https://torgi.gov.ru/new/file-store/v1/676fe682029b367c712188fd'), ('Документ Microsoft Word (1)-изображения-2.jpg', 'https://torgi.gov.ru/new/file-store/v1/676fe686d09dc15042a11bbe'), ('Документ Microsoft Word (1)-изображения-3.jpg', 'https://torgi.gov.ru/new/file-store/v1/676fe6891754143a1cb405d8'), ('Документ Microsoft Word (1)-изображения-4.jpg', 'https://torgi.gov.ru/new/file-store/v1/676fe68e1754143a1cb405df'), ('Документ Microsoft Word (1)-изображения-5.jpg', 'https://torgi.gov.ru/new/file-store/v1/676fe6951754143a1cb405e5'), ('Документ Microsoft Word (1)-изображения-6.jpg', 'https://torgi.gov.ru/new/file-store/v1/676fe69f029b367c71218908'), ('Документ Microsoft Word (1)-изображения-7.jpg', 'https://torgi.gov.ru/new/file-store/v1/676fe6a326093e159b493d37'), ('Документ Microsoft Word (1)-изображения-8.jpg', 'https://torgi.gov.ru/new/file-store/v1/676fe6a6029b367c7121890c'), ('Документ Microsoft Word (1)-изображения-9.jpg', 'https://torgi.gov.ru/new/file-store/v1/676fe6aa029b367c71218915'), ('Документ Microsoft Word (1)-изображения-10.jpg', 'https://torgi.gov.ru/new/file-store/v1/676fe6ad26093e159b493d41')]","https://pkk.rosreestr.ru/#/search/45.438435029104596,48.459840933220576/19/@5w3tqw5ca?text=30:11:20201:120&opened=30:11:20201:120"
21000022190000000245_3,21000022190000000245,3,APPLICATIONS_SUBMISSION,Аренда лесных участков и продажа лесных насаждений,Электронный аукцион,Введение сельского хозяйства (сенокошение),"Право на заключение договора аренды лесного участка, находящегося в государственной собственности",2025-02-02 15:00:00+00:00,https://torgi.gov.ru/new/file-store/v1/676fe35d029b367c712186ac?disposition=inline,643,Земли лесного фонда,2024-12-28 16:35:01.865000+00:00,МСК+1,240,False,False,False,2024-12-28T12:48:49.131Z,hint1_200FZ,rent,19971.97,ETP_SBAST,,"{'code': 'excludingVAT', 'name': 'Без учета НДС'}",,Астраханская область,,315862.0,30:11:110301:303,https://torgi.gov.ru/new/public/lots/lot/21000022190000000245_3,"([48.20687835218715, 46.089780050312584], 'Российская Федерация, Астраханская область, Правобережное лесничество в границах Черноярского административного района, Черноярское участковое лесничество, квартал 36 выделы 15,20ч.,27, квартал 38 выдел 1')","[48.20687835218715, 46.089780050312584]","Российская Федерация, Астраханская область, Правобережное лесничество в границах Черноярского административного района, Черноярское участковое лесничество, квартал 36 выделы 15,20ч.,27, квартал 38 выдел 1",2025-02-09 09:00:00+00:00,2025-01-01 09:00:00+00:00,https://utp.sberbank-ast.ru/AP/NBT/PurchaseView/13/0/0/2661796,998.59,19971.97,"[('выписка.pdf', 'https://torgi.gov.ru/new/file-store/v1/676fe364029b367c712186b4'), ('Проект.pdf', 'https://torgi.gov.ru/new/file-store/v1/676fe36b26093e159b493b2d'), ('Проект.docx', 'https://torgi.gov.ru/new/file-store/v1/676fe375029b367c712186cd'), ('Картинка.jpg', 'https://torgi.gov.ru/new/file-store/v1/676fe35d029b367c712186ac')]","https://pkk.rosreestr.ru/#/search/46.089780050312584,48.20687835218715/19/@5w3tqw5ca?text=30:11:110301:303&opened=30:11:110301:303"
21000022190000000245_1,21000022190000000245,1,APPLICATIONS_SUBMISSION,Аренда лесных участков и продажа лесных насаждений,Электронный аукцион,"Введение сельского хозяйства (сенокошение, выпас сельскохозяйственных животных)","Право на заключение договора аренды лесного участка, находящегося в государственной собственности",2025-02-02 15:00:00+00:00,https://torgi.gov.ru/new/file-store/v1/676fdf6f26093e159b4937cb?disposition=inline,643,Земли лесного фонда,2024-12-28 16:35:01.865000+00:00,МСК+1,240,False,False,False,2024-12-28T12:48:49.131Z,hint1_200FZ,rent,13390.26,ETP_SBAST,,"{'code': 'excludingVAT', 'name': 'Без учета НДС'}",,Астраханская область,,285448.0,30:11:130405:158,https://torgi.gov.ru/new/public/lots/lot/21000022190000000245_1,"([48.10007335571802, 46.1269286889793], 'Астраханская область, Правобережное лесничество в границах Черноярского административного района, Черноярское участковое лесничество, квартал 61 выдел 26, квартал 62 выделы 34, 37, квартал 69 выделы 5, 10, 11, 19')","[48.10007335571802, 46.1269286889793]","Астраханская область, Правобережное лесничество в границах Черноярского административного района, Черноярское участковое лесничество, квартал 61 выдел 26, квартал 62 выделы 34, 37, квартал 69 выделы 5, 10, 11, 19",2025-02-09 09:00:00+00:00,2025-01-01 09:00:00+00:00,https://utp.sberbank-ast.ru/AP/NBT/PurchaseView/13/0/0/2661796,669.51,13390.26,"[('выписка лот 1.pdf', 'https://torgi.gov.ru/new/file-store/v1/676fdf7b029b367c7121820d'), ('ПДЛУ № 1.pdf', 'https://torgi.gov.ru/new/file-store/v1/676fdf83d09dc15042a116a5'), ('Проект.docx', 'https://torgi.gov.ru/new/file-store/v1/676fdf8c26093e159b4937db'), ('IMG_20240813_161721~2.jpg', 'https://torgi.gov.ru/new/file-store/v1/676fdf6f26093e159b4937cb')]","https://pkk.rosreestr.ru/#/search/46.1269286889793,48.10007335571802/19/@5w3tqw5ca?text=30:11:130405:158&opened=30:11:130405:158"
21000000120000000084_1,21000000120000000084,1,APPLICATIONS_SUBMISSION,Аренда и продажа земельных участков,Электронный аукцион,"Земельный участок с кадастровым номером 30:03:000000:830, площадью 8000000 кв.м., расположенного по адресу: Астраханская обл.,  р-н Енотаевский,  24,5 км юго-западнее пос.Волжский.",Категория земель: Земли сельскохозяйственного назначенияВиды разрешенного использования: животноводство (для выпаса скота)Цель предоставления: разведение сельскохозяйственных животных.,2025-01-22 08:00:00+00:00,https://torgi.gov.ru/new/file-store/v1/676f97bfd09dc15042a0b5f0?disposition=inline,643,Земли сельскохозяйственного назначения,2024-12-28 09:19:56.728000+00:00,МСК,180,False,False,False,2024-12-28T07:02:55.812Z,hint1_ZK,rent,80000.0,ETP_AVK,"[{'code': 'DA_tradingFeatures_EA(ZK)', 'fullName': 'Торги проводятся с учетом особенностей в соответствии с 161-ФЗ от 24.07.2008 «О содействии развитию жилищного строительства»', 'value': False, 'attributeType': 'Checker', 'group': {'code': 'N250', 'name': '1.2 Извещение_основные_сведения', 'displayGroupType': 'NOTICE'}, 'sortOrder': 1}]","{'code': 'notAssessedVAT', 'name': 'НДС не облагается'}",,Астраханская область,в соответствии с аукционной документацией ,8000000.0,30:03:000000:830,https://torgi.gov.ru/new/public/lots/lot/21000000120000000084_1,"([46.763017823788964, 47.38276663691463], 'Астраханская область, р-н Енотаевский, 24,5 км юго-западнее пос. Волжский')","[46.763017823788964, 47.38276663691463]","Астраханская область, р-н Енотаевский, 24,5 км юго-западнее пос. Волжский",2025-01-27 09:00:00+00:00,2024-12-29 00:00:00+00:00,http://sale.zakazrf.ru/NotificationEXLot/id/64195,2400.0,80000.0,"[('Договор аренды к Лоту № 1.docx', 'https://torgi.gov.ru/new/file-store/v1/676f97d9029b367c712111f5'), ('оценка 830.pdf', 'https://torgi.gov.ru/new/file-store/v1/676f97fbd09dc15042a0b619'), ('распоряжение 830.PDF', 'https://torgi.gov.ru/new/file-store/v1/676f97fc1754143a1cb38d5e'), ('фото.jpeg', 'https://torgi.gov.ru/new/file-store/v1/676f97bfd09dc15042a0b5f0')]","https://pkk.rosreestr.ru/#/search/47.38276663691463,46.763017823788964/19/@5w3tqw5ca?text=30:3:0:830&opened=30:3:0:830"
21000000120000000084_2,21000000120000000084,2,APPLICATIONS_SUBMISSION,Аренда и продажа земельных участков,Электронный аукцион,"Земельный участок с кадастровым номером 30:03:000000:971, площадью 2411245 кв.м., расположенного по адресу: Астраханская обл.,  р-н Енотаевский, в 5,5 км юго-западнее с.Енотаевка на территории муниципального образования «Село Енотаевка».",Категория земель: Земли сельскохозяйственного назначенияВиды разрешенного использования: для выращивания сельскохозяйственной продукцииЦель предоставления: разведение сельскохозяйственных животных,2025-01-22 08:00:00+00:00,https://torgi.gov.ru/new/file-store/v1/676f9a83d09dc15042a0b84b?disposition=inline,643,Земли сельскохозяйственного назначения,2024-12-28 09:19:56.728000+00:00,МСК,180,False,False,False,2024-12-28T07:02:55.812Z,hint1_ZK,rent,60040.0,ETP_AVK,"[{'code': 'DA_tradingFeatures_EA(ZK)', 'fullName': 'Торги проводятся с учетом особенностей в соответствии с 161-ФЗ от 24.07.2008 «О содействии развитию жилищного строительства»', 'value': False, 'attributeType': 'Checker', 'group': {'code': 'N250', 'name': '1.2 Извещение_основные_сведения', 'displayGroupType': 'NOTICE'}, 'sortOrder': 1}]","{'code': 'notAssessedVAT', 'name': 'НДС не облагается'}",,Астраханская область,в соответствии с аукционной документацией   ,2411245.0,30:03:000000:971,https://torgi.gov.ru/new/public/lots/lot/21000000120000000084_2,"([47.21396980212534, 46.985201601553555], 'Астраханская обл., р-н Енотаевский, в 5,5 км юго-западнее с. Енотаевка на территории муниципального образования ""Село Енотаевка')","[47.21396980212534, 46.985201601553555]","Астраханская обл., р-н Енотаевский, в 5,5 км юго-западнее с. Енотаевка на территории муниципального образования ""Село Енотаевка",2025-01-27 09:00:00+00:00,2024-12-29 00:00:00+00:00,http://sale.zakazrf.ru/NotificationEXLot/id/64196,1801.2,60040.0,"[('Договор аренды к Лоту № 2.docx', 'https://torgi.gov.ru/new/file-store/v1/676f9acbd09dc15042a0b879'), ('оценка 971.pdf', 'https://torgi.gov.ru/new/file-store/v1/676f9add26093e159b48def1'), ('распоряжение 971.PDF', 'https://torgi.gov.ru/new/file-store/v1/676f9ae0d09dc15042a0b899'), ('фото.jpeg', 'https://torgi.gov.ru/new/file-store/v1/676f9a83d09dc15042a0b84b')]","https://pkk.rosreestr.ru/#/search/46.985201601553555,47.21396980212534/19/@5w3tqw5ca?text=30:3:0:971&opened=30:3:0:971"
22000157100000000015_3,22000157100000000015,3,APPLICATIONS_SUBMISSION,Аренда и продажа земельных участков,Электронный аукцион,Лот № 3,"аукцион в электронной форме на право заключения договора аренды земельного участка кадастровый номер 30:13:010104:395, категории земель – земли населенных пунктов, площадью 800 кв.м., адрес: Астраханская область, городской округ ЗАТО Знаменск, г. Знаменск, ул. Астраханская, земельный участок 22, вид разрешенного использования земельного участка: для индивидуального жилищного строительства",2025-01-28 23:59:00+00:00,https://torgi.gov.ru/new/file-store/v1/676e4f95d09dc150429fde6a?disposition=inline,643,Земли населенных пунктов,2024-12-27 11:15:59.878000+00:00,МСК+1,240,False,False,False,2024-12-27T07:19:29.772Z,hint1_ZK,rent,40100.0,ETP_SBAST,"[{'code': 'DA_tradingFeatures_EA(ZK)', 'fullName': 'Торги проводятся с учетом особенностей в соответствии с 161-ФЗ от 24.07.2008 «О содействии развитию жилищного строительства»', 'value': False, 'attributeType': 'Checker', 'group': {'code': 'N250', 'name': '1.2 Извещение_основные_сведения', 'displayGroupType': 'NOTICE'}, 'sortOrder': 1}]","{'code': 'notAssessedVAT', 'name': 'НДС не облагается'}",,Астраханская область,20 лет,800.0,30:13:010104:395,https://torgi.gov.ru/new/public/lots/lot/22000157100000000015_3,"([48.593437166670206, 45.72350215355705], 'Российская Федерация, Астраханская область, городской округ ЗАТО Знаменск, город Знаменск, улица Астраханская, земельный участок 22')","[48.593437166670206, 45.72350215355705]","Российская Федерация, Астраханская область, городской округ ЗАТО Знаменск, город Знаменск, улица Астраханская, земельный участок 22",2025-02-03 09:00:00+00:00,2024-12-30 00:00:00+00:00,https://utp.sberbank-ast.ru/AP/NBT/PurchaseView/21/0/0/2653199,1203.0,8020.0,"[('ЗУ 395.png', 'https://torgi.gov.ru/new/file-store/v1/676e4f95d09dc150429fde6a')]","https://pkk.rosreestr.ru/#/search/45.72350215355705,48.593437166670206/19/@5w3tqw5ca?text=30:13:10104:395&opened=30:13:10104:395"
22000157100000000015_4,22000157100000000015,4,APPLICATIONS_SUBMISSION,Аренда и продажа земельных участков,Электронный аукцион,Лот № 4,"аукцион в электронной форме на право заключения договора аренды земельного участка кадастровый номер 30:13:010104:396, категории земель – земли населенных пунктов, площадью 800 кв.м., адрес: Астраханская область, городской округ ЗАТО Знаменск, г. Знаменск, ул. Астраханская, 24, вид разрешенного использования земельного участка: для индивидуального жилищного строительства",2025-01-28 23:59:00+00:00,https://torgi.gov.ru/new/file-store/v1/676e51d7029b367c71200fbf?disposition=inline,643,Земли населенных пунктов,2024-12-27 11:15:59.878000+00:00,МСК+1,240,False,False,False,2024-12-27T07:19:29.772Z,hint1_ZK,rent,40100.0,ETP_SBAST,"[{'code': 'DA_tradingFeatures_EA(ZK)', 'fullName': 'Торги проводятся с учетом особенностей в соответствии с 161-ФЗ от 24.07.2008 «О содействии развитию жилищного строительства»', 'value': False, 'attributeType': 'Checker', 'group': {'code': 'N250', 'name': '1.2 Извещение_основные_сведения', 'displayGroupType': 'NOTICE'}, 'sortOrder': 1}]","{'code': 'notAssessedVAT', 'name': 'НДС не облагается'}",,Астраханская область,20 лет,800.0,30:13:010104:396,https://torgi.gov.ru/new/public/lots/lot/22000157100000000015_4,"([48.593390892007626, 45.72376420119084], 'Российская Федерация, Астраханская область, городской округ ЗАТО Знаменск, г. Знаменск, ул. Астраханская, 24')","[48.593390892007626, 45.72376420119084]","Российская Федерация, Астраханская область, городской округ ЗАТО Знаменск, г. Знаменск, ул. Астраханская, 24",2025-02-03 09:00:00+00:00,2024-12-30 00:00:00+00:00,https://utp.sberbank-ast.ru/AP/NBT/PurchaseView/21/0/0/2653199,1203.0,8020.0,"[('ЗУ 396.png', 'https://torgi.gov.ru/new/file-store/v1/676e51d7029b367c71200fbf')]","https://pkk.rosreestr.ru/#/search/45.72376420119084,48.593390892007626/19/@5w3tqw5ca?text=30:13:10104:396&opened=30:13:10104:396"
22000157100000000015_2,22000157100000000015,2,APPLICATIONS_SUBMISSION,Аренда и продажа земельных участков,Электронный аукцион,Лот № 2,"аукцион в электронной форме на право заключения договора аренды земельного участка кадастровый номер 30:13:010112:1407, категории земель – земли населенных пунктов, площадью 562 кв.м., адрес: Астраханская область, г. Знаменск, ул. Янгеля, около здания № 8, вид разрешенного использования земельного участка: код 5.1 Спорт, код 4.9.2 Стоянка транспортных средств",2025-01-28 23:59:00+00:00,https://torgi.gov.ru/new/file-store/v1/676e4cf926093e159b47ff19?disposition=inline,643,Земли населенных пунктов,2024-12-27 11:15:59.878000+00:00,МСК+1,240,False,False,False,2024-12-27T07:19:29.772Z,hint1_ZK,rent,22400.0,ETP_SBAST,"[{'code': 'DA_tradingFeatures_EA(ZK)', 'fullName': 'Торги проводятся с учетом особенностей в соответствии с 161-ФЗ от 24.07.2008 «О содействии развитию жилищного строительства»', 'value': False, 'attributeType': 'Checker', 'group': {'code': 'N250', 'name': '1.2 Извещение_основные_сведения', 'displayGroupType': 'NOTICE'}, 'sortOrder': 1}]","{'code': 'notAssessedVAT', 'name': 'НДС не облагается'}",,Астраханская область,30 месяцев,562.0,30:13:010112:1407,https://torgi.gov.ru/new/public/lots/lot/22000157100000000015_2,"([48.59177891006413, 45.719805577166134], 'Российская Федерация, Астраханская область, г Знаменск, ул Янгеля, около здания №8')","[48.59177891006413, 45.719805577166134]","Российская Федерация, Астраханская область, г Знаменск, ул Янгеля, около здания №8",2025-02-03 09:00:00+00:00,2024-12-30 00:00:00+00:00,https://utp.sberbank-ast.ru/AP/NBT/PurchaseView/21/0/0/2653199,672.0,4480.0,"[('ЗУ 1407.png', 'https://torgi.gov.ru/new/file-store/v1/676e4cf926093e159b47ff19')]","https://pkk.rosreestr.ru/#/search/45.719805577166134,48.59177891006413/19/@5w3tqw5ca?text=30:13:10112:1407&opened=30:13:10112:1407"
22000157100000000015_1,22000157100000000015,1,APPLICATIONS_SUBMISSION,Аренда и продажа земельных участков,Электронный аукцион,Лот № 1,"аукцион в электронной форме на право заключения договора аренды земельного участка кадастровый номер 30:13:010601:183, категории земель – земли населенных пунктов, площадью 2408 кв.м, адрес: Астраханская область, г. Знаменск, с Северо-восточной стороны комплекса фильтровальных станций, вид разрешенного использования земельного участка: код 3.10.1 Амбулаторное ветеринарное обслуживание; код 4.4 Магазины; код 4.7 Гостиничное обслуживание; код 4.9.1 Объекты дорожного сервиса; 4.9.2 Стоянка ТС",2025-01-28 23:59:00+00:00,https://torgi.gov.ru/new/file-store/v1/676e4804029b367c711ffbce?disposition=inline,643,Земли населенных пунктов,2024-12-27 11:15:59.878000+00:00,МСК+1,240,False,False,False,2024-12-27T07:19:29.772Z,hint1_ZK,rent,75000.0,ETP_SBAST,"[{'code': 'DA_tradingFeatures_EA(ZK)', 'fullName': 'Торги проводятся с учетом особенностей в соответствии с 161-ФЗ от 24.07.2008 «О содействии развитию жилищного строительства»', 'value': False, 'attributeType': 'Checker', 'group': {'code': 'N250', 'name': '1.2 Извещение_основные_сведения', 'displayGroupType': 'NOTICE'}, 'sortOrder': 1}]","{'code': 'notAssessedVAT', 'name': 'НДС не облагается'}",,Астраханская область,58 месяцев,2408.0,30:13:010601:183,https://torgi.gov.ru/new/public/lots/lot/22000157100000000015_1,"([48.57544331621565, 45.71464024606034], 'Астраханская область, г Знаменск, с Северо-восточной стороны комплекса фильтровальных станций ')","[48.57544331621565, 45.71464024606034]","Астраханская область, г Знаменск, с Северо-восточной стороны комплекса фильтровальных станций ",2025-02-03 09:00:00+00:00,2024-12-30 00:00:00+00:00,https://utp.sberbank-ast.ru/AP/NBT/PurchaseView/21/0/0/2653199,2250.0,15000.0,"[('Фото-183.jpg', 'https://torgi.gov.ru/new/file-store/v1/676e4804029b367c711ffbce')]","https://pkk.rosreestr.ru/#/search/45.71464024606034,48.57544331621565/19/@5w3tqw5ca?text=30:13:10601:183&opened=30:13:10601:183"
22000169440000000225_1,22000169440000000225,1,APPLICATIONS_SUBMISSION,Аренда и продажа земельных участков,Сообщение о предоставлении (реализации),Извещение о возможности предоставления земельных участков.,согласно извещению,2025-01-26 09:00:00+00:00,https://torgi.gov.ru/new/file-store/v1/676d481226093e159b476808?disposition=inline,643,Земли населенных пунктов,2024-12-26 16:12:38.375000+00:00,МСК+1,240,False,False,False,2024-12-26T12:12:51.651Z,hint1_ZK,rent,,,,,,Астраханская область,,1494.0,30:02:010101:324,https://torgi.gov.ru/new/public/lots/lot/22000169440000000225_1,"([46.41225452529542, 48.449146832854055], 'Астраханская область, Володарский р-н, с. Актюбе, ул. Джамбула, 7""б""')","[46.41225452529542, 48.449146832854055]","Астраханская область, Володарский р-н, с. Актюбе, ул. Джамбула, 7""б""",,2024-12-26 17:00:00+00:00,,,,"[('схема.jpg', 'https://torgi.gov.ru/new/file-store/v1/676d481626093e159b476814'), ('схема.jpg', 'https://torgi.gov.ru/new/file-store/v1/676d481226093e159b476808')]","https://pkk.rosreestr.ru/#/search/48.449146832854055,46.41225452529542/19/@5w3tqw5ca?text=30:2:10101:324&opened=30:2:10101:324"
22000015920000000638_1,22000015920000000638,1,APPLICATIONS_SUBMISSION,Аренда и продажа земельных участков,Электронный аукцион,ежегодная арендная плата,Границы земельного участка описаны в Выписке из ЕГРН об объекте недвижимости от 10.12.2024г. № КУВИ-001/2024-299400647,2025-01-27 10:00:00+00:00,https://torgi.gov.ru/new/file-store/v1/676be8c8d09dc150429e0b61?disposition=inline,643,Земли сельскохозяйственного назначения,2024-12-25 15:15:53.077000+00:00,МСК+1,240,False,False,False,2024-12-25T11:16:24.818Z,hint1_ZK,rent,7816.0,ETP_RAD,"[{'code': 'DA_tradingFeatures_EA(ZK)', 'fullName': 'Торги проводятся с учетом особенностей в соответствии с 161-ФЗ от 24.07.2008 «О содействии развитию жилищного строительства»', 'value': False, 'attributeType': 'Checker', 'group': {'code': 'N250', 'name': '1.2 Извещение_основные_сведения', 'displayGroupType': 'NOTICE'}, 'sortOrder': 1}]","{'code': 'notAssessedVAT', 'name': 'НДС не облагается'}",,Астраханская область,5 (пять) лет,2000000.0,30:10:070702:160,https://torgi.gov.ru/new/public/lots/lot/22000015920000000638_1,"([47.264266732897205, 47.96960450884869], 'Российская Федерация, Астраханская область, Харабалинский р-н, в 28,55 км от с. Хошеутово, пески Айгай, в границах муниципального образования «Сельское поселение Хошеутовский сельсовет Харабалинского муниципального района Астраханской области» ')","[47.264266732897205, 47.96960450884869]","Российская Федерация, Астраханская область, Харабалинский р-н, в 28,55 км от с. Хошеутово, пески Айгай, в границах муниципального образования «Сельское поселение Хошеутовский сельсовет Харабалинского муниципального района Астраханской области» ",2025-01-31 14:00:00+00:00,2024-12-27 11:00:00+00:00,https://catalog.lot-online.ru/notice/22000015920000000638/1,234.0,1563.0,"[('извещение.doc', 'https://torgi.gov.ru/new/file-store/v1/676be8d01754143a1cafd1e7'), ('160.png', 'https://torgi.gov.ru/new/file-store/v1/676be8c8d09dc150429e0b61')]","https://pkk.rosreestr.ru/#/search/47.96960450884869,47.264266732897205/19/@5w3tqw5ca?text=30:10:70702:160&opened=30:10:70702:160"
22000015920000000637_1,22000015920000000637,1,APPLICATIONS_SUBMISSION,Аренда и продажа земельных участков,Электронный аукцион,ежегодная арендная плата,Границы земельного участка описаны в Выписке из ЕГРН об объекте недвижимости от 28.11.2024г.  № КУВИ-001/2024-288697175,2025-01-27 10:00:00+00:00,https://torgi.gov.ru/new/file-store/v1/676be41626093e159b462d9f?disposition=inline,643,Земли сельскохозяйственного назначения,2024-12-25 14:57:36.239000+00:00,МСК+1,240,False,False,False,2024-12-25T10:57:58.195Z,hint1_ZK,rent,6239.0,ETP_RAD,"[{'code': 'DA_tradingFeatures_EA(ZK)', 'fullName': 'Торги проводятся с учетом особенностей в соответствии с 161-ФЗ от 24.07.2008 «О содействии развитию жилищного строительства»', 'value': False, 'attributeType': 'Checker', 'group': {'code': 'N250', 'name': '1.2 Извещение_основные_сведения', 'displayGroupType': 'NOTICE'}, 'sortOrder': 1}]","{'code': 'notAssessedVAT', 'name': 'НДС не облагается'}",,Астраханская область,5 (пять) лет,1500000.0,30:10:070701:189,https://torgi.gov.ru/new/public/lots/lot/22000015920000000637_1,"([47.29539788960884, 48.189091460057405], 'Астраханская область, Харабалинский р-н, в 40,7 км на северо-восток от с. Хошеутово, вблизи кладб. Сагиздемола, в границах МО ""Хошеутовский сельсовет""')","[47.29539788960884, 48.189091460057405]","Астраханская область, Харабалинский р-н, в 40,7 км на северо-восток от с. Хошеутово, вблизи кладб. Сагиздемола, в границах МО ""Хошеутовский сельсовет""",2025-01-31 13:00:00+00:00,2024-12-27 11:00:00+00:00,https://catalog.lot-online.ru/notice/22000015920000000637/1,187.0,1247.0,"[('извещение.doc', 'https://torgi.gov.ru/new/file-store/v1/676be427d09dc150429e0600'), ('189.png', 'https://torgi.gov.ru/new/file-store/v1/676be41626093e159b462d9f')]","https://pkk.rosreestr.ru/#/search/48.189091460057405,47.29539788960884/19/@5w3tqw5ca?text=30:10:70701:189&opened=30:10:70701:189"
22000015920000000636_1,22000015920000000636,1,APPLICATIONS_SUBMISSION,Аренда и продажа земельных участков,Электронный аукцион,ежегодная арендная плата,Границы земельного участка описаны в Выписке из ЕГРН об объекте недвижимости №КУВИ-____________от ______.,2025-01-27 10:00:00+00:00,https://torgi.gov.ru/new/file-store/v1/676bdf8726093e159b462938?disposition=inline,643,Земли сельскохозяйственного назначения,2024-12-25 14:40:30.133000+00:00,МСК+1,240,False,False,False,2024-12-25T10:40:50.781Z,hint1_ZK,rent,6203.0,ETP_RAD,"[{'code': 'DA_tradingFeatures_EA(ZK)', 'fullName': 'Торги проводятся с учетом особенностей в соответствии с 161-ФЗ от 24.07.2008 «О содействии развитию жилищного строительства»', 'value': False, 'attributeType': 'Checker', 'group': {'code': 'N250', 'name': '1.2 Извещение_основные_сведения', 'displayGroupType': 'NOTICE'}, 'sortOrder': 1}]","{'code': 'notAssessedVAT', 'name': 'НДС не облагается'}",,Астраханская область,5 (пять) лет,1500000.0,30:10:070701:190,https://torgi.gov.ru/new/public/lots/lot/22000015920000000636_1,"([47.2952392890375, 48.198456721674624], 'Астраханская область, Харабалинский р-н, в 41,1 км на северо-восток от с. Хошеутово, вблизи кладб. Сагиздемола, в границах МО ""Хошеутовский сельсовет""')","[47.2952392890375, 48.198456721674624]","Астраханская область, Харабалинский р-н, в 41,1 км на северо-восток от с. Хошеутово, вблизи кладб. Сагиздемола, в границах МО ""Хошеутовский сельсовет""",2025-01-31 12:00:00+00:00,2024-12-27 11:00:00+00:00,https://catalog.lot-online.ru/notice/22000015920000000636/1,186.0,1240.0,"[('извещение.doc', 'https://torgi.gov.ru/new/file-store/v1/676bdfde1754143a1cafc6f5'), ('Без имени.png', 'https://torgi.gov.ru/new/file-store/v1/676bdf8726093e159b462938')]","https://pkk.rosreestr.ru/#/search/48.198456721674624,47.2952392890375/19/@5w3tqw5ca?text=30:10:70701:190&opened=30:10:70701:190"
22000015920000000635_1,22000015920000000635,1,APPLICATIONS_SUBMISSION,Аренда и продажа земельных участков,Электронный аукцион,ежегодная арендная плата,Границы земельного участка описаны в Выписке из ЕГРН об объекте недвижимости от 28.11.2024г. № КУВИ-001/2024-288686043,2025-01-27 10:00:00+00:00,https://torgi.gov.ru/new/file-store/v1/676bdc62029b367c711d4d59?disposition=inline,643,Земли сельскохозяйственного назначения,2024-12-25 14:23:03.295000+00:00,МСК+1,240,False,False,False,2024-12-25T10:23:39.186Z,hint1_ZK,rent,6278.0,ETP_RAD,"[{'code': 'DA_tradingFeatures_EA(ZK)', 'fullName': 'Торги проводятся с учетом особенностей в соответствии с 161-ФЗ от 24.07.2008 «О содействии развитию жилищного строительства»', 'value': False, 'attributeType': 'Checker', 'group': {'code': 'N250', 'name': '1.2 Извещение_основные_сведения', 'displayGroupType': 'NOTICE'}, 'sortOrder': 1}]","{'code': 'notAssessedVAT', 'name': 'НДС не облагается'}",,Астраханская область,5 (пять) лет,1500000.0,30:10:070701:188,https://torgi.gov.ru/new/public/lots/lot/22000015920000000635_1,"([47.295513630363615, 48.17959159688256], 'Российская Федерация, Астраханская область, Харабалинский р-н, в 40,3 км на северо-восток от с. Хошеутово, вблизи кладб. Сагиздемола, в границах МО ""Хошеутовский сельсовет""')","[47.295513630363615, 48.17959159688256]","Российская Федерация, Астраханская область, Харабалинский р-н, в 40,3 км на северо-восток от с. Хошеутово, вблизи кладб. Сагиздемола, в границах МО ""Хошеутовский сельсовет""",2025-01-31 11:00:00+00:00,2024-12-27 11:00:00+00:00,https://catalog.lot-online.ru/notice/22000015920000000635/1,188.0,1255.0,"[('извещение.doc', 'https://torgi.gov.ru/new/file-store/v1/676bdc7ad09dc150429dfd1f'), ('Без имени.png', 'https://torgi.gov.ru/new/file-store/v1/676bdc62029b367c711d4d59')]","https://pkk.rosreestr.ru/#/search/48.17959159688256,47.295513630363615/19/@5w3tqw5ca?text=30:10:70701:188&opened=30:10:70701:188"
22000015920000000634_1,22000015920000000634,1,APPLICATIONS_SUBMISSION,Аренда и продажа земельных участков,Электронный аукцион,ежегодная арендная плата,Границы земельного участка описаны в Выписке из ЕГРН об объекте недвижимости от 28.11.2024г. № КУВИ-001/2024-288677688,2025-01-27 10:00:00+00:00,https://torgi.gov.ru/new/file-store/v1/676bd74326093e159b461dec?disposition=inline,643,Земли сельскохозяйственного назначения,2024-12-25 14:00:40.463000+00:00,МСК+1,240,False,False,False,2024-12-25T10:01:43.527Z,hint1_ZK,rent,6880.0,ETP_RAD,"[{'code': 'DA_tradingFeatures_EA(ZK)', 'fullName': 'Торги проводятся с учетом особенностей в соответствии с 161-ФЗ от 24.07.2008 «О содействии развитию жилищного строительства»', 'value': False, 'attributeType': 'Checker', 'group': {'code': 'N250', 'name': '1.2 Извещение_основные_сведения', 'displayGroupType': 'NOTICE'}, 'sortOrder': 1}]","{'code': 'notAssessedVAT', 'name': 'НДС не облагается'}",,Астраханская область,5 (пять) лет,1500000.0,30:10:070702:158,https://torgi.gov.ru/new/public/lots/lot/22000015920000000634_1,"([47.25721540047065, 48.11226752777892], 'Российская Федерация, Астраханская область, р-н Харабалинский, в 34 км на северо-восток от с. Хошеутово, граничит с Красноярским районом с восточной стороны, в границах МО ""Хошеутовский сельсовет""')","[47.25721540047065, 48.11226752777892]","Российская Федерация, Астраханская область, р-н Харабалинский, в 34 км на северо-восток от с. Хошеутово, граничит с Красноярским районом с восточной стороны, в границах МО ""Хошеутовский сельсовет""",2025-01-31 10:00:00+00:00,2024-12-27 11:00:00+00:00,https://catalog.lot-online.ru/notice/22000015920000000634/1,206.0,1376.0,"[('извещение.doc', 'https://torgi.gov.ru/new/file-store/v1/676bd74826093e159b461df3'), ('Без имени.png', 'https://torgi.gov.ru/new/file-store/v1/676bd74326093e159b461dec')]","https://pkk.rosreestr.ru/#/search/48.11226752777892,47.25721540047065/19/@5w3tqw5ca?text=30:10:70702:158&opened=30:10:70702:158"
22000015920000000633_1,22000015920000000633,1,APPLICATIONS_SUBMISSION,Аренда и продажа земельных участков,Электронный аукцион,ежегодная арендная плата,Границы земельного участка описаны в Выписке из ЕГРН об объекте недвижимости от 10.12.2024г. № КУВИ-001/2024-299404011.,2025-01-27 10:00:00+00:00,https://torgi.gov.ru/new/file-store/v1/676bd1a426093e159b461761?disposition=inline,643,Земли сельскохозяйственного назначения,2024-12-25 13:40:29.444000+00:00,МСК+1,240,False,False,False,2024-12-25T09:41:16.364Z,hint1_ZK,rent,17473.0,ETP_RAD,"[{'code': 'DA_tradingFeatures_EA(ZK)', 'fullName': 'Торги проводятся с учетом особенностей в соответствии с 161-ФЗ от 24.07.2008 «О содействии развитию жилищного строительства»', 'value': False, 'attributeType': 'Checker', 'group': {'code': 'N250', 'name': '1.2 Извещение_основные_сведения', 'displayGroupType': 'NOTICE'}, 'sortOrder': 1}]","{'code': 'notAssessedVAT', 'name': 'НДС не облагается'}",,Астраханская область,5 (пять) лет,3959042.0,30:10:070702:159,https://torgi.gov.ru/new/public/lots/lot/22000015920000000633_1,"([47.27673700654675, 47.93978188571911], 'Российская Федерация, Астраханская область, Харабалинский район, в 28,61 км на северо-восток от с. Хошеутово, пески Айгай, в границах муниципального образования «Сельское поселение Хошеутовский сельсовет Харабалинского муниципального района Астраханской области»')","[47.27673700654675, 47.93978188571911]","Российская Федерация, Астраханская область, Харабалинский район, в 28,61 км на северо-восток от с. Хошеутово, пески Айгай, в границах муниципального образования «Сельское поселение Хошеутовский сельсовет Харабалинского муниципального района Астраханской области»",2025-01-31 09:00:00+00:00,2024-12-27 11:00:00+00:00,https://catalog.lot-online.ru/notice/22000015920000000633/1,524.0,3494.0,"[('извещение.doc', 'https://torgi.gov.ru/new/file-store/v1/676bd255d09dc150429defc6'), ('Без имени.png', 'https://torgi.gov.ru/new/file-store/v1/676bd1a426093e159b461761')]","https://pkk.rosreestr.ru/#/search/47.93978188571911,47.27673700654675/19/@5w3tqw5ca?text=30:10:70702:159&opened=30:10:70702:159"
23000052470000000125_7,23000052470000000125,7,APPLICATIONS_SUBMISSION,Реализация имущества должников,Аукцион,"Цымбалов Р.Н. Земельный участок, пл. 152000 кв.м, кад. №: 30:01:070101:341, адрес: Астраханская обл., Ахтубинский р-н, 9,5-10,0 км северо-западнее с. Ново-Николаевка","Цымбалов Р.Н. Земельный участок, пл. 152000 кв.м, кад. №: 30:01:070101:341, адрес: Астраханская обл., Ахтубинский р-н, 9,5-10,0 км северо-западнее с. Ново-Николаевка",2025-01-27 17:00:00+00:00,https://torgi.gov.ru/new/file-store/v1/676ba9c726093e159b45c396?disposition=inline,643,Земли сельскохозяйственного назначения,2024-12-25 10:13:01.722000+00:00,МСК+1,240,False,False,False,2024-12-26T09:20:29.242Z,hint2_229FZ_PA_1,sale,480300.0,,"[{'code': 'DA_npaForProcedure_BA(229)', 'fullName': 'Нормативный правовой акт, на основании которого проходят торги', 'value': {'code': '229FZ', 'name': '229-ФЗ'}, 'attributeType': 'Select', 'group': {'code': 'N250', 'name': '1.2 Извещение_основные_сведения', 'displayGroupType': 'NOTICE'}, 'sortOrder': 1}]","{'code': 'notAssessedVAT', 'name': 'НДС не облагается'}",,Астраханская область,,152000.0,30:01:070101:341,https://torgi.gov.ru/new/public/lots/lot/23000052470000000125_7,"([48.121881711806054, 46.450788096634625], 'Астраханская обл, р-н Ахтубинский, 9,5-10,0 км северо-западнее с.Ново-Николаевка')","[48.121881711806054, 46.450788096634625]","Астраханская обл, р-н Ахтубинский, 9,5-10,0 км северо-западнее с.Ново-Николаевка",2025-01-31 11:00:00+00:00,2024-12-27 11:00:00+00:00,,4803.0,72045.0,"[('Цымбалов роскадастр.png', 'https://torgi.gov.ru/new/file-store/v1/676ba9d526093e159b45c39a'), ('Цымбалов.pdf', 'https://torgi.gov.ru/new/file-store/v1/676ba9dc029b367c711cd224'), ('невижимость.jpeg', 'https://torgi.gov.ru/new/file-store/v1/676ba9c726093e159b45c396')]","https://pkk.rosreestr.ru/#/search/46.450788096634625,48.121881711806054/19/@5w3tqw5ca?text=30:1:70101:341&opened=30:1:70101:341"
23000052470000000125_8,23000052470000000125,8,APPLICATIONS_SUBMISSION,Реализация имущества должников,Аукцион,"Петрова С.В. Земельный участок, пл. 35491 кв.м, кад. №: 30:01:160102:579, адрес: Астраханская обл., Ахтубинский р-н, в районе р. Владимировский Затон (насосная станция)","Петрова С.В. Земельный участок, пл. 35491 кв.м, кад. №: 30:01:160102:579, адрес: Астраханская обл., Ахтубинский р-н, в районе р. Владимировский Затон (насосная станция)",2025-01-27 17:00:00+00:00,https://torgi.gov.ru/new/file-store/v1/676baa761754143a1caf4170?disposition=inline,643,Земли сельскохозяйственного назначения,2024-12-25 10:13:01.722000+00:00,МСК+1,240,False,False,False,2024-12-26T09:20:29.242Z,hint2_229FZ_PA_1,sale,65000.0,,"[{'code': 'DA_npaForProcedure_BA(229)', 'fullName': 'Нормативный правовой акт, на основании которого проходят торги', 'value': {'code': '229FZ', 'name': '229-ФЗ'}, 'attributeType': 'Select', 'group': {'code': 'N250', 'name': '1.2 Извещение_основные_сведения', 'displayGroupType': 'NOTICE'}, 'sortOrder': 1}]","{'code': 'notAssessedVAT', 'name': 'НДС не облагается'}",,Астраханская область,,35491.0,30:01:160102:579,https://torgi.gov.ru/new/public/lots/lot/23000052470000000125_8,"([48.333700786955895, 46.027556136883646], 'Астраханская обл, р-н Ахтубинский, в районе р.Владимировский Затон (насосная станция)')","[48.333700786955895, 46.027556136883646]","Астраханская обл, р-н Ахтубинский, в районе р.Владимировский Затон (насосная станция)",2025-01-31 11:00:00+00:00,2024-12-27 11:00:00+00:00,,650.0,9750.0,"[('Петрова роскадастр.png', 'https://torgi.gov.ru/new/file-store/v1/676baa8b1754143a1caf419e'), ('Петрова.pdf', 'https://torgi.gov.ru/new/file-store/v1/676baa91029b367c711cd303'), ('невижимость.jpeg', 'https://torgi.gov.ru/new/file-store/v1/676baa761754143a1caf4170')]","https://pkk.rosreestr.ru/#/search/46.027556136883646,48.333700786955895/19/@5w3tqw5ca?text=30:1:160102:579&opened=30:1:160102:579"
23000052470000000125_1,23000052470000000125,1,APPLICATIONS_SUBMISSION,Реализация имущества должников,Аукцион,"Кинжибаев В.К. Земельный участок, пл. 104800 кв.м, кад. №: 30:03:121001:142, адрес: Астраханская обл., Енотаевский р-н, 8,3 км севернее пос. Волжский","Кинжибаев В.К. Земельный участок, пл. 104800 кв.м, кад. №: 30:03:121001:142, адрес: Астраханская обл., Енотаевский р-н, 8,3 км севернее пос. Волжский",2025-01-27 17:00:00+00:00,https://torgi.gov.ru/new/file-store/v1/676ba26126093e159b45bae1?disposition=inline,643,Земли сельскохозяйственного назначения,2024-12-25 10:13:01.722000+00:00,МСК+1,240,False,False,False,2024-12-26T09:20:29.242Z,hint2_229FZ_PA_1,sale,146115.0,,"[{'code': 'DA_npaForProcedure_BA(229)', 'fullName': 'Нормативный правовой акт, на основании которого проходят торги', 'value': {'code': '229FZ', 'name': '229-ФЗ'}, 'attributeType': 'Select', 'group': {'code': 'N250', 'name': '1.2 Извещение_основные_сведения', 'displayGroupType': 'NOTICE'}, 'sortOrder': 1}]","{'code': 'notAssessedVAT', 'name': 'НДС не облагается'}",,Астраханская область,,104800.0,30:03:121001:142,https://torgi.gov.ru/new/public/lots/lot/23000052470000000125_1,"([47.03906156218279, 47.50456502070781], 'Астраханская область, Енотаевский район, 8,3 км севернее пос. Волжский\xa0')","[47.03906156218279, 47.50456502070781]","Астраханская область, Енотаевский район, 8,3 км севернее пос. Волжский ",2025-01-31 11:00:00+00:00,2024-12-27 11:00:00+00:00,,1461.15,21918.0,"[('Кинжибаев роскадастр  (1).png', 'https://torgi.gov.ru/new/file-store/v1/676ba26826093e159b45bae9'), ('Кинжибаев роскадастр  (2).png', 'https://torgi.gov.ru/new/file-store/v1/676ba2671754143a1caf32e7'), ('Кинжибаев роскадастр  (3).png', 'https://torgi.gov.ru/new/file-store/v1/676ba2671754143a1caf32eb'), ('Кинжибаев снижение.pdf', 'https://torgi.gov.ru/new/file-store/v1/676ba2681754143a1caf32f1'), ('Кинжибаев.pdf', 'https://torgi.gov.ru/new/file-store/v1/676ba2691754143a1caf32fd'), ('невижимость.jpeg', 'https://torgi.gov.ru/new/file-store/v1/676ba26126093e159b45bae1')]","https://pkk.rosreestr.ru/#/search/47.50456502070781,47.03906156218279/19/@5w3tqw5ca?text=30:3:121001:142&opened=30:3:121001:142"
22000021310000000549_1,22000021310000000549,1,APPLICATIONS_SUBMISSION,Аренда и продажа земельных участков,Электронный аукцион,стоимость земельного участка,от 24.12.2024 №КУВИ-001/2024-311252829,2025-01-25 17:00:00+00:00,https://torgi.gov.ru/new/file-store/v1/676ba08bd09dc150429d9578?disposition=inline,643,Земли населенных пунктов,2024-12-25 10:07:12.806000+00:00,МСК+1,240,False,False,False,2024-12-25T06:07:30.815Z,hint1_ZK,sale,171000.0,ETP_AVK,"[{'code': 'DA_tradingFeatures_EA(ZK)', 'fullName': 'Торги проводятся с учетом особенностей в соответствии с 161-ФЗ от 24.07.2008 «О содействии развитию жилищного строительства»', 'value': False, 'attributeType': 'Checker', 'group': {'code': 'N250', 'name': '1.2 Извещение_основные_сведения', 'displayGroupType': 'NOTICE'}, 'sortOrder': 1}]","{'code': 'notAssessedVAT', 'name': 'НДС не облагается'}",,Астраханская область,,686.0,30:05:170102:380,https://torgi.gov.ru/new/public/lots/lot/22000021310000000549_1,"([45.95564957834581, 48.11798705282278], 'Астраханская область, Камызякский муниципальный  район, сельское поселение ""Жан-Аульский сельсовет"", село Жан-Аул, ул. Советская, земельный участок  29а')","[45.95564957834581, 48.11798705282278]","Астраханская область, Камызякский муниципальный  район, сельское поселение ""Жан-Аульский сельсовет"", село Жан-Аул, ул. Советская, земельный участок  29а",2025-01-29 14:00:00+00:00,2024-12-26 10:00:00+00:00,http://sale.zakazrf.ru/NotificationEXLot/id/64003,5000.0,85000.0,"[('схема Жан Аул Советская 29а.jpg', 'https://torgi.gov.ru/new/file-store/v1/676ba08bd09dc150429d9578')]","https://pkk.rosreestr.ru/#/search/48.11798705282278,45.95564957834581/19/@5w3tqw5ca?text=30:5:170102:380&opened=30:5:170102:380"
22000093420000000287_1,22000093420000000287,1,APPLICATIONS_SUBMISSION,Аренда и продажа земельных участков,Сообщение о предоставлении (реализации),"В соответствии со статьей 39.18 Земельного кодекса Российской Федерации, информирует о возможности предоставлении земельного участка из земель населенных пунктов на праве аренды для ИЖС, Адрес (местоположение) земельного участка: 1.Астраханская обл., Ахтубинский р-н, с. Успенка, х. Кононенко, площадью 1996 кв.м., с условным кадастровым номером: 30:01:140302:113","В соответствии со статьей 39.18 Земельного кодекса Российской Федерации, информирует о возможности предоставлении земельного участка из земель населенных пунктов на праве аренды для ИЖС, Адрес (местоположение) земельного участка: 1.Астраханская обл., Ахтубинский р-н, с. Успенка, х. Кононенко, площадью 1996 кв.м., с условным кадастровым номером: 30:01:140302:113",2025-01-24 18:00:00+00:00,https://torgi.gov.ru/new/file-store/v1/676b9b14d09dc150429d8c0e?disposition=inline,643,Земли населенных пунктов,2024-12-25 09:42:04.545000+00:00,МСК+1,240,False,False,False,2024-12-25T13:08:45.11Z,hint1_ZK,rent,,,,,,Астраханская область,,1996.0,30:01:140302:113,https://torgi.gov.ru/new/public/lots/lot/22000093420000000287_1,"([48.156875528593936, 46.22571197608125], 'Российская Федерация, Астраханская область, Ахтубинский район, хутор Кононенко ')","[48.156875528593936, 46.22571197608125]","Российская Федерация, Астраханская область, Ахтубинский район, хутор Кононенко ",,2024-12-25 18:00:00+00:00,,,,"[('Кантемиров 1996 схема.pdf', 'https://torgi.gov.ru/new/file-store/v1/676b9ac2029b367c711cbb21'), ('2024-12-25_09-41-04.png', 'https://torgi.gov.ru/new/file-store/v1/676b9b14d09dc150429d8c0e')]","https://pkk.rosreestr.ru/#/search/46.22571197608125,48.156875528593936/19/@5w3tqw5ca?text=30:1:140302:113&opened=30:1:140302:113"
22000021310000000548_1,22000021310000000548,1,APPLICATIONS_SUBMISSION,Аренда и продажа земельных участков,Электронный аукцион,стоимость земельного участка,от 24.12.2024 №КУВИ-001/2024-311252828,2025-01-25 17:00:00+00:00,https://torgi.gov.ru/new/file-store/v1/676b9743029b367c711cb7aa?disposition=inline,643,Земли населенных пунктов,2024-12-25 09:39:31.627000+00:00,МСК+1,240,False,False,False,2024-12-25T05:39:57.695Z,hint1_ZK,sale,205000.0,ETP_AVK,"[{'code': 'DA_tradingFeatures_EA(ZK)', 'fullName': 'Торги проводятся с учетом особенностей в соответствии с 161-ФЗ от 24.07.2008 «О содействии развитию жилищного строительства»', 'value': False, 'attributeType': 'Checker', 'group': {'code': 'N250', 'name': '1.2 Извещение_основные_сведения', 'displayGroupType': 'NOTICE'}, 'sortOrder': 1}]","{'code': 'notAssessedVAT', 'name': 'НДС не облагается'}",,Астраханская область,,829.0,30:05:170102:378,https://torgi.gov.ru/new/public/lots/lot/22000021310000000548_1,"([45.956157392381456, 48.11801541384621], 'Астраханская область, Камызякский муниципальный  район, сельское поселение ""Жан-Аульский сельсовет"", село Жан-Аул, ул. Советская, земельный участок  27а')","[45.956157392381456, 48.11801541384621]","Астраханская область, Камызякский муниципальный  район, сельское поселение ""Жан-Аульский сельсовет"", село Жан-Аул, ул. Советская, земельный участок  27а",2025-01-29 11:00:00+00:00,2024-12-26 10:00:00+00:00,http://sale.zakazrf.ru/NotificationEXLot/id/64002,6000.0,102000.0,"[('схема Жан Аул Советская 27а.jpg', 'https://torgi.gov.ru/new/file-store/v1/676b9743029b367c711cb7aa')]","https://pkk.rosreestr.ru/#/search/48.11801541384621,45.956157392381456/19/@5w3tqw5ca?text=30:5:170102:378&opened=30:5:170102:378"
22000093420000000286_1,22000093420000000286,1,APPLICATIONS_SUBMISSION,Аренда и продажа земельных участков,Сообщение о предоставлении (реализации),"В соответствии со статьей 39.18 Земельного кодекса Российской Федерации, информирует о возможности предоставлении земельного участка из земель населенных пунктов на праве аренды для ИЖС, Адрес (местоположение) земельного участка: 1.Астраханская обл., Ахтубинский р-н, с. Успенка, х. Кононенко, площадью 2000 кв.м., с условным кадастровым номером: 30:01:140302:114","В соответствии со статьей 39.18 Земельного кодекса Российской Федерации, информирует о возможности предоставлении земельного участка из земель населенных пунктов на праве аренды для ИЖС, Адрес (местоположение) земельного участка: 1.Астраханская обл., Ахтубинский р-н, с. Успенка, х. Кононенко, площадью 2000 кв.м., с условным кадастровым номером: 30:01:140302:114",2025-01-24 18:00:00+00:00,https://torgi.gov.ru/new/file-store/v1/676b97de26093e159b45ad9a?disposition=inline,643,Земли населенных пунктов,2024-12-25 09:36:03.615000+00:00,МСК+1,240,False,False,False,2024-12-25T13:05:49.863Z,hint1_ZK,rent,,,,,,Астраханская область,,2000.0,30:01:140302:114,https://torgi.gov.ru/new/public/lots/lot/22000093420000000286_1,"([48.1544228565274, 46.227206156177395], 'Российская Федерация, Астраханская область, Ахтубинский район, хутор Кононенко')","[48.1544228565274, 46.227206156177395]","Российская Федерация, Астраханская область, Ахтубинский район, хутор Кононенко",,2024-12-25 18:00:00+00:00,,,,"[('Извщение.docx', 'https://torgi.gov.ru/new/file-store/v1/676b9985d09dc150429d8ae7'), ('штефан 2000 схема.pdf', 'https://torgi.gov.ru/new/file-store/v1/676b99ad26093e159b45aec1'), ('2024-12-25_09-27-09.png', 'https://torgi.gov.ru/new/file-store/v1/676b97de26093e159b45ad9a')]","https://pkk.rosreestr.ru/#/search/46.227206156177395,48.1544228565274/19/@5w3tqw5ca?text=30:1:140302:114&opened=30:1:140302:114"
21000017080000000893_1,21000017080000000893,1,APPLICATIONS_SUBMISSION,Аренда и продажа земельных участков,Электронный аукцион,"аукцион на право заключения договора  аренды земельного участка, расположенного по адресу: Астраханская область, р-н Приволжский, в 700 м юго-восточнее от п. Кинелле, в 50 м от автодороги Астрахань-Тишково, в 3,9 км от южной границы с. Килинчи",земельный участок с разрешенным использованием: растениеводство,2025-01-23 17:00:00+00:00,https://torgi.gov.ru/new/file-store/v1/676aa4ee029b367c711c3d52?disposition=inline,643,Земли сельскохозяйственного назначения,2024-12-24 16:13:35.105000+00:00,МСК+1,240,False,False,False,2024-12-24T12:13:48.08Z,hint1_ZK,rent,55684.0,ETP_RAD,"[{'code': 'DA_tradingFeatures_EA(ZK)', 'fullName': 'Торги проводятся с учетом особенностей в соответствии с 161-ФЗ от 24.07.2008 «О содействии развитию жилищного строительства»', 'value': False, 'attributeType': 'Checker', 'group': {'code': 'N250', 'name': '1.2 Извещение_основные_сведения', 'displayGroupType': 'NOTICE'}, 'sortOrder': 1}]","{'code': 'notAssessedVAT', 'name': 'НДС не облагается'}",,Астраханская область,5 (пять) лет,1274628.0,30:09:081201:39,https://torgi.gov.ru/new/public/lots/lot/21000017080000000893_1,"([46.23934213081747, 48.24058276102829], 'Астраханская область, р-н Приволжский, в 700 м юго-восточнее от п. Кинелле, в 50 м от автодороги Астрахань-Тишково, в 3,9 км от южной границы с. Килинчи')","[46.23934213081747, 48.24058276102829]","Астраханская область, р-н Приволжский, в 700 м юго-восточнее от п. Кинелле, в 50 м от автодороги Астрахань-Тишково, в 3,9 км от южной границы с. Килинчи",2025-01-27 10:00:00+00:00,2024-12-25 09:00:00+00:00,https://catalog.lot-online.ru/notice/21000017080000000893/1,1670.0,11136.0,"[('нет фото.jpg', 'https://torgi.gov.ru/new/file-store/v1/676aa4ee029b367c711c3d52')]","https://pkk.rosreestr.ru/#/search/48.24058276102829,46.23934213081747/19/@5w3tqw5ca?text=30:9:81201:39&opened=30:9:81201:39"
23000049640000000070_3,23000049640000000070,3,APPLICATIONS_SUBMISSION,Аренда и продажа земельных участков,Электронный аукцион,Право заключения договора аренды земельного участка,"Земельный участок площадью 300 кв.м., расположенный по адресу: Астраханская область, г. Астрахань, Советский район, ул. Александрова, с кадастровым номером  30:12:030135:480 с видом разрешенного использования - магазины",2025-01-24 11:00:00+00:00,"https://torgi.gov.ru/new/file-store/v1/676aaa2c26093e159b455a94?disposition=inline, https://torgi.gov.ru/new/file-store/v1/676ba04526093e159b45b964?disposition=inline, https://torgi.gov.ru/new/file-store/v1/676ba06c1754143a1caf30f2?disposition=inline",643,Земли населенных пунктов,2024-12-24 15:44:41.125000+00:00,МСК+1,240,False,False,False,2024-12-25T06:30:22.533Z,hint1_ZK,rent,90300.0,ETP_SBAST,"[{'code': 'DA_tradingFeatures_EA(ZK)', 'fullName': 'Торги проводятся с учетом особенностей в соответствии с 161-ФЗ от 24.07.2008 «О содействии развитию жилищного строительства»', 'value': False, 'attributeType': 'Checker', 'group': {'code': 'N250', 'name': '1.2 Извещение_основные_сведения', 'displayGroupType': 'NOTICE'}, 'sortOrder': 1}]","{'code': 'notAssessedVAT', 'name': 'НДС не облагается'}",,Астраханская область,4 года 10 месяцев,300.0,30:12:030135:480,https://torgi.gov.ru/new/public/lots/lot/23000049640000000070_3,"([46.3163916802362, 47.99776716840376], 'Российская Федерация, Астраханская область, г Астрахань, ул Александрова')","[46.3163916802362, 47.99776716840376]","Российская Федерация, Астраханская область, г Астрахань, ул Александрова",2025-01-28 10:00:00+00:00,2024-12-25 11:00:00+00:00,https://utp.sberbank-ast.ru/AP/NBT/PurchaseView/21/0/0/2644670,2700.0,85785.0,"[('Выписка Александрова.pdf', 'https://torgi.gov.ru/new/file-store/v1/676b9ff7d09dc150429d9227'), ('Акт №703 от 24.12.2024.pdf', 'https://torgi.gov.ru/new/file-store/v1/676ba0131754143a1caf2ea0'), ('Чертеж ул. Александрова.png', 'https://torgi.gov.ru/new/file-store/v1/676ba297029b367c711cc92d'), ('Изображение Александрова.png', 'https://torgi.gov.ru/new/file-store/v1/676aaa2c26093e159b455a94'), ('20241224_140949.jpg', 'https://torgi.gov.ru/new/file-store/v1/676ba04526093e159b45b964'), ('20241224_140956.jpg', 'https://torgi.gov.ru/new/file-store/v1/676ba06c1754143a1caf30f2')]","https://pkk.rosreestr.ru/#/search/47.99776716840376,46.3163916802362/19/@5w3tqw5ca?text=30:12:30135:480&opened=30:12:30135:480"
23000049640000000070_1,23000049640000000070,1,APPLICATIONS_SUBMISSION,Аренда и продажа земельных участков,Электронный аукцион,Право заключения договора аренды земельного участка,"Земельный участок площадью 651 кв.м., расположенный по адресу: Астраханская область, г Астрахань, Советский район, ул Звездная, с кадастровым номером  30:12:030833:5719 с видом разрешенного использования - Склады",2025-01-24 11:00:00+00:00,"https://torgi.gov.ru/new/file-store/v1/676aa1ead09dc150429d303c?disposition=inline, https://torgi.gov.ru/new/file-store/v1/676b9dca26093e159b45b23b?disposition=inline, https://torgi.gov.ru/new/file-store/v1/676b9dc9d09dc150429d8dc8?disposition=inline, https://torgi.gov.ru/new/file-store/v1/676b9dca1754143a1caf2617?disposition=inline",643,Земли населенных пунктов,2024-12-24 15:44:41.125000+00:00,МСК+1,240,False,False,False,2024-12-25T06:30:22.533Z,hint1_ZK,rent,72700.0,ETP_SBAST,"[{'code': 'DA_tradingFeatures_EA(ZK)', 'fullName': 'Торги проводятся с учетом особенностей в соответствии с 161-ФЗ от 24.07.2008 «О содействии развитию жилищного строительства»', 'value': False, 'attributeType': 'Checker', 'group': {'code': 'N250', 'name': '1.2 Извещение_основные_сведения', 'displayGroupType': 'NOTICE'}, 'sortOrder': 1}]","{'code': 'notAssessedVAT', 'name': 'НДС не облагается'}",,Астраханская область,4 года 10 месяцев,651.0,30:12:030833:5719,https://torgi.gov.ru/new/public/lots/lot/23000049640000000070_1,"([46.34150451775757, 48.07484600913658], 'Российская Федерация, Астраханская область, г Астрахань, Советский район, ул Звездная')","[46.34150451775757, 48.07484600913658]","Российская Федерация, Астраханская область, г Астрахань, Советский район, ул Звездная",2025-01-28 10:00:00+00:00,2024-12-25 11:00:00+00:00,https://utp.sberbank-ast.ru/AP/NBT/PurchaseView/21/0/0/2644670,2180.0,69065.0,"[('Акт №624 от 22.11.2024 ул. Звездная.pdf', 'https://torgi.gov.ru/new/file-store/v1/676aaa771754143a1caeb4bf'), ('Выписка улица Звездная.pdf', 'https://torgi.gov.ru/new/file-store/v1/676b9de0d09dc150429d8df1'), ('Чертеж ул. Звездная.png', 'https://torgi.gov.ru/new/file-store/v1/676ba25ad09dc150429d969d'), ('Изображение Звездная.png', 'https://torgi.gov.ru/new/file-store/v1/676aa1ead09dc150429d303c'), ('Фото Звездная1.png', 'https://torgi.gov.ru/new/file-store/v1/676b9dca26093e159b45b23b'), ('Фото Звездная2.png', 'https://torgi.gov.ru/new/file-store/v1/676b9dc9d09dc150429d8dc8'), ('Фото Звездная3.png', 'https://torgi.gov.ru/new/file-store/v1/676b9dca1754143a1caf2617')]","https://pkk.rosreestr.ru/#/search/48.07484600913658,46.34150451775757/19/@5w3tqw5ca?text=30:12:30833:5719&opened=30:12:30833:5719"
23000049640000000070_2,23000049640000000070,2,APPLICATIONS_SUBMISSION,Аренда и продажа земельных участков,Электронный аукцион,Право заключения договора аренды земельного участка,"Земельный участок площадью 10245 кв.м., расположенный по адресу: Астраханская область, г. Астрахань, Трусовский район, проезд 3-й Маршанский, с кадастровым номером  30:12:040189:301 с видом разрешенного использования - склады",2025-01-24 11:00:00+00:00,"https://torgi.gov.ru/new/file-store/v1/676aa6f61754143a1caeabb8?disposition=inline, https://torgi.gov.ru/new/file-store/v1/676b9ec51754143a1caf26ce?disposition=inline, https://torgi.gov.ru/new/file-store/v1/676b9ec51754143a1caf26dc?disposition=inline, https://torgi.gov.ru/new/file-store/v1/676b9ec526093e159b45b39d?disposition=inline, https://torgi.gov.ru/new/file-store/v1/676b9ec51754143a1caf26f3?disposition=inline, https://torgi.gov.ru/new/file-store/v1/676b9ec51754143a1caf26e6?disposition=inline, https://torgi.gov.ru/new/file-store/v1/676b9ec5029b367c711cbf46?disposition=inline, https://torgi.gov.ru/new/file-store/v1/676b9ec6d09dc150429d8e98?disposition=inline",643,Земли населенных пунктов,2024-12-24 15:44:41.125000+00:00,МСК+1,240,False,False,False,2024-12-25T06:30:22.533Z,hint1_ZK,rent,1153300.0,ETP_SBAST,"[{'code': 'DA_tradingFeatures_EA(ZK)', 'fullName': 'Торги проводятся с учетом особенностей в соответствии с 161-ФЗ от 24.07.2008 «О содействии развитию жилищного строительства»', 'value': False, 'attributeType': 'Checker', 'group': {'code': 'N250', 'name': '1.2 Извещение_основные_сведения', 'displayGroupType': 'NOTICE'}, 'sortOrder': 1}]","{'code': 'notAssessedVAT', 'name': 'НДС не облагается'}",,Астраханская область,10 лет 8 месяцев,10245.0,30:12:040189:301,https://torgi.gov.ru/new/public/lots/lot/23000049640000000070_2,"([46.42494775841481, 47.96286521459755], 'Российская Федерация, Астраханская область, г. Астрахань, Трусовский район, проезд 3-й Маршанский ')","[46.42494775841481, 47.96286521459755]","Российская Федерация, Астраханская область, г. Астрахань, Трусовский район, проезд 3-й Маршанский ",2025-01-28 10:00:00+00:00,2024-12-25 11:00:00+00:00,https://utp.sberbank-ast.ru/AP/NBT/PurchaseView/21/0/0/2644670,34590.0,1095635.0,"[('Акт №614 от 19.11.2024 проезд 3-й Маршанский.pdf', 'https://torgi.gov.ru/new/file-store/v1/676aaa9e029b367c711c499f'), ('Выписка проезд 3-й Маршанский.pdf', 'https://torgi.gov.ru/new/file-store/v1/676b9ed3029b367c711cbf6b'), ('Чертеж 3-й проезд Маршанский.png', 'https://torgi.gov.ru/new/file-store/v1/676ba2811754143a1caf3317'), ('Изображение проезд 3-й Маршанский.png', 'https://torgi.gov.ru/new/file-store/v1/676aa6f61754143a1caeabb8'), ('Фото Маршанский 2.png', 'https://torgi.gov.ru/new/file-store/v1/676b9ec51754143a1caf26ce'), ('Фото Маршанский1.png', 'https://torgi.gov.ru/new/file-store/v1/676b9ec51754143a1caf26dc'), ('Фото Маршанский3.png', 'https://torgi.gov.ru/new/file-store/v1/676b9ec526093e159b45b39d'), ('Фото Маршанский4.png', 'https://torgi.gov.ru/new/file-store/v1/676b9ec51754143a1caf26f3'), ('Фото Маршанский5.png', 'https://torgi.gov.ru/new/file-store/v1/676b9ec51754143a1caf26e6'), ('Фото Маршанский6.png', 'https://torgi.gov.ru/new/file-store/v1/676b9ec5029b367c711cbf46'), ('Фото Маршанский7.png', 'https://torgi.gov.ru/new/file-store/v1/676b9ec6d09dc150429d8e98')]","https://pkk.rosreestr.ru/#/search/47.96286521459755,46.42494775841481/19/@5w3tqw5ca?text=30:12:40189:301&opened=30:12:40189:301"
22000010370000000355_1,22000010370000000355,1,APPLICATIONS_SUBMISSION,Аренда и продажа земельных участков,Электронный аукцион,земельный участок,"земельный участок с кадастровым номером – 30:11:160101:2906, площадью – 2000 кв.м., из категории земель: земли населенных пунктов, расположенный: Астраханская область, Черноярский район, с. Соленое Займище, ул. Молодежная",2025-01-23 17:00:00+00:00,https://torgi.gov.ru/new/file-store/v1/676a96f6029b367c711c2411?disposition=inline,643,Земли населенных пунктов,2024-12-24 15:15:56.432000+00:00,МСК+1,240,False,False,False,2024-12-24T11:17:41.28Z,hint1_ZK,rent,12000.0,ETP_SBAST,"[{'code': 'DA_tradingFeatures_EA(ZK)', 'fullName': 'Торги проводятся с учетом особенностей в соответствии с 161-ФЗ от 24.07.2008 «О содействии развитию жилищного строительства»', 'value': False, 'attributeType': 'Checker', 'group': {'code': 'N250', 'name': '1.2 Извещение_основные_сведения', 'displayGroupType': 'NOTICE'}, 'sortOrder': 1}]","{'code': 'notAssessedVAT', 'name': 'НДС не облагается'}",,Астраханская область,20 лет,2000.0,30:11:160101:2906,https://torgi.gov.ru/new/public/lots/lot/22000010370000000355_1,"([47.91571413341618, 46.13402782503823], 'Астраханская область, Черноярский район, с Соленое Займище, ул Молодежная')","[47.91571413341618, 46.13402782503823]","Астраханская область, Черноярский район, с Соленое Займище, ул Молодежная",2025-01-29 11:00:00+00:00,2024-12-25 08:00:00+00:00,https://utp.sberbank-ast.ru/AP/NBT/PurchaseView/21/0/0/2641904,360.0,2400.0,"[('ЗАЯВКА НА УЧАСТИЕ В ЭЛЕКТРОННОМ  АУКЦИОНЕ.docx', 'https://torgi.gov.ru/new/file-store/v1/676a96fd26093e159b45402f'), ('ПРОЕКТ ДОГОВОРА АРЕНДЫ2906.docx', 'https://torgi.gov.ru/new/file-store/v1/676a96ff029b367c711c2414'), ('РАСПОРЯЖЕНИЕ2906.docx', 'https://torgi.gov.ru/new/file-store/v1/676a97021754143a1cae8d8c'), ('Scan.jpg', 'https://torgi.gov.ru/new/file-store/v1/676a96f6029b367c711c2411')]","https://pkk.rosreestr.ru/#/search/46.13402782503823,47.91571413341618/19/@5w3tqw5ca?text=30:11:160101:2906&opened=30:11:160101:2906"
22000010370000000354_1,22000010370000000354,1,APPLICATIONS_SUBMISSION,Аренда и продажа земельных участков,Электронный аукцион,земельный участок,"земельный участок с кадастровым номером – 30:11:060102:445, площадью – 676 кв.м., из категории земель: земли населенных пунктов, расположенный: Астраханская область, Черноярский район, х. Бундин, с видом разрешенного использования – личное подсобное хозяйство",2025-01-23 17:00:00+00:00,https://torgi.gov.ru/new/file-store/v1/676a8b6b029b367c711c0b6e?disposition=inline,643,Земли населенных пунктов,2024-12-24 14:23:48.242000+00:00,МСК+1,240,False,False,False,2024-12-24T10:24:19.476Z,hint1_ZK,rent,4056.0,ETP_SBAST,"[{'code': 'DA_tradingFeatures_EA(ZK)', 'fullName': 'Торги проводятся с учетом особенностей в соответствии с 161-ФЗ от 24.07.2008 «О содействии развитию жилищного строительства»', 'value': False, 'attributeType': 'Checker', 'group': {'code': 'N250', 'name': '1.2 Извещение_основные_сведения', 'displayGroupType': 'NOTICE'}, 'sortOrder': 1}]","{'code': 'includedVAT', 'name': 'С учетом НДС'}",,Астраханская область,20 лет,676.0,30:11:060102:445,https://torgi.gov.ru/new/public/lots/lot/22000010370000000354_1,"([48.42409103101636, 45.47975595418223], 'Российская Федерация, Астраханская область, Черноярский район, х. Бундин')","[48.42409103101636, 45.47975595418223]","Российская Федерация, Астраханская область, Черноярский район, х. Бундин",2025-01-29 11:00:00+00:00,2024-12-25 08:00:00+00:00,https://utp.sberbank-ast.ru/AP/NBT/PurchaseView/21/0/0/2641845,121.68,811.2,"[('ЗАЯВКА НА УЧАСТИЕ В ЭЛЕКТРОННОМ  АУКЦИОНЕ.docx', 'https://torgi.gov.ru/new/file-store/v1/676a8b9d1754143a1cae7a0f'), ('ПРОЕКТ ДОГОВОРА АРЕНДЫ445.docx', 'https://torgi.gov.ru/new/file-store/v1/676a8ba026093e159b453225'), ('РАСПОРЯЖЕНИЕ445.docx', 'https://torgi.gov.ru/new/file-store/v1/676a8ba4029b367c711c0bcd'), ('Scan.jpg', 'https://torgi.gov.ru/new/file-store/v1/676a8b6b029b367c711c0b6e')]","https://pkk.rosreestr.ru/#/search/45.47975595418223,48.42409103101636/19/@5w3tqw5ca?text=30:11:60102:445&opened=30:11:60102:445"
22000156670000000013_1,22000156670000000013,1,APPLICATIONS_SUBMISSION,Аренда и продажа земельных участков,Сообщение о предоставлении (реализации),предоставление на право аренды земельного участка,"В соответствии со статьёй 39.18 Земельного кодекса Российской Федерации информируем о возможности предоставления в аренду земельного участка с кадастровым номером 30:03:000000:1178 площадью 464000  кв. м, категория земель – «земли сельскохозяйственного назначения», вид разрешенного использования «Для сельскохозяйственного производства».",2025-01-24 16:00:00+00:00,https://torgi.gov.ru/new/file-store/v1/676a540e26093e159b44ead0?disposition=inline,643,Земли сельскохозяйственного назначения,2024-12-24 10:34:55.045000+00:00,МСК+1,240,False,False,False,2024-12-24T06:46:41.065Z,hint1_ZK,rent,,,,,,Астраханская область,,464000.0,30:03:000000:1178,https://torgi.gov.ru/new/public/lots/lot/22000156670000000013_1,"([47.000798882914616, 47.34925294200466], 'Астраханская область, Енотаевский район, 800 м юго-восточнее с. Ленино')","[47.000798882914616, 47.34925294200466]","Астраханская область, Енотаевский район, 800 м юго-восточнее с. Ленино",,2024-12-25 09:00:00+00:00,,,,"[('Ленино.pdf', 'https://torgi.gov.ru/new/file-store/v1/676a558a1754143a1cae2024'), ('Договор на торги..doc', 'https://torgi.gov.ru/new/file-store/v1/676a55da1754143a1cae208e'), ('1647008821_45-vsegda-pomnim-com-p-reka-yenotaevka-foto-48.jpg', 'https://torgi.gov.ru/new/file-store/v1/676a540e26093e159b44ead0')]","https://pkk.rosreestr.ru/#/search/47.34925294200466,47.000798882914616/19/@5w3tqw5ca?text=30:3:0:1178&opened=30:3:0:1178"
22000149720000000058_1,22000149720000000058,1,APPLICATIONS_SUBMISSION,Аренда и продажа земельных участков,Электронный аукцион,"Продажа земельного участка из категории земель населенных пунктов, находящегося в государственной собственности, вид разрешенного использования – для индивидуального жилищного строительства, с кадастровым номером 30:05:200103:75, площадью 1200 кв.м., расположенного по адресу: Российская Федерация, Астраханская область, муниципальный район Камызякский, городское поселение поселок Кировский, рабочий поселок Кировский, улица Кирова, земельный участок 30а","Продажа земельного участка из категории земель населенных пунктов, находящегося в государственной собственности, вид разрешенного использования – для индивидуального жилищного строительства, с кадастровым номером 30:05:200103:75, площадью 1200 кв.м., расположенного по адресу: Российская Федерация, Астраханская область, муниципальный район Камызякский, городское поселение поселок Кировский, рабочий поселок Кировский, улица Кирова, земельный участок 30а",2025-01-23 16:00:00+00:00,https://torgi.gov.ru/new/file-store/v1/676a4f39029b367c711b9c93?disposition=inline,643,Земли населенных пунктов,2024-12-24 10:10:56.156000+00:00,МСК+1,240,False,False,False,2024-12-24T06:11:52.61Z,hint1_ZK,sale,772000.0,ETP_AVK,"[{'code': 'DA_tradingFeatures_EA(ZK)', 'fullName': 'Торги проводятся с учетом особенностей в соответствии с 161-ФЗ от 24.07.2008 «О содействии развитию жилищного строительства»', 'value': False, 'attributeType': 'Checker', 'group': {'code': 'N250', 'name': '1.2 Извещение_основные_сведения', 'displayGroupType': 'NOTICE'}, 'sortOrder': 1}]","{'code': 'notAssessedVAT', 'name': 'НДС не облагается'}",,Астраханская область,,1200.0,30:05:200103:75,https://torgi.gov.ru/new/public/lots/lot/22000149720000000058_1,"([45.84741204796867, 48.117706602148246], 'Российская Федерация, Астраханская область, муниципальный район Камызякский, городское поселение поселок Кировский, рабочий поселок Кировский, улица Кирова, земельный участок 30а')","[45.84741204796867, 48.117706602148246]","Российская Федерация, Астраханская область, муниципальный район Камызякский, городское поселение поселок Кировский, рабочий поселок Кировский, улица Кирова, земельный участок 30а",2025-01-28 11:00:00+00:00,2024-12-25 09:00:00+00:00,http://sale.zakazrf.ru/NotificationEXLot/id/63941,23160.0,500000.0,"[('Постановление 294 от 23.12.2024.pdf', 'https://torgi.gov.ru/new/file-store/v1/676a4f431754143a1cae1327'), ('Выписка Кирова, зу 30а.pdf', 'https://torgi.gov.ru/new/file-store/v1/676a4f50d09dc150429cbbc2'), ('Схема Кирова ЗУ 30а.jpg', 'https://torgi.gov.ru/new/file-store/v1/676a4f39029b367c711b9c93')]","https://pkk.rosreestr.ru/#/search/48.117706602148246,45.84741204796867/19/@5w3tqw5ca?text=30:5:200103:75&opened=30:5:200103:75"
22000149720000000057_1,22000149720000000057,1,APPLICATIONS_SUBMISSION,Аренда и продажа земельных участков,Электронный аукцион,"Продажа земельного участка из категории земель населенных пунктов, находящегося в государственной собственности, вид разрешенного использования – для индивидуального жилищного строительства, с кадастровым номером 30:05:200103:73, площадью 1200 кв.м., расположенного по адресу: Российская Федерация, Астраханская область, муниципальный район Камызякский, городское поселение поселок Кировский, рабочий поселок Кировский, улица Кирова, земельный участок 30","Продажа земельного участка из категории земель населенных пунктов, находящегося в государственной собственности, вид разрешенного использования – для индивидуального жилищного строительства, с кадастровым номером 30:05:200103:73, площадью 1200 кв.м., расположенного по адресу: Российская Федерация, Астраханская область, муниципальный район Камызякский, городское поселение поселок Кировский, рабочий поселок Кировский, улица Кирова, земельный участок 30",2025-01-23 16:00:00+00:00,https://torgi.gov.ru/new/file-store/v1/676a4b9526093e159b44dac8?disposition=inline,643,Земли населенных пунктов,2024-12-24 09:58:00.461000+00:00,МСК+1,240,False,False,False,2024-12-24T06:01:32.506Z,hint1_ZK,sale,772000.0,ETP_AVK,"[{'code': 'DA_tradingFeatures_EA(ZK)', 'fullName': 'Торги проводятся с учетом особенностей в соответствии с 161-ФЗ от 24.07.2008 «О содействии развитию жилищного строительства»', 'value': False, 'attributeType': 'Checker', 'group': {'code': 'N250', 'name': '1.2 Извещение_основные_сведения', 'displayGroupType': 'NOTICE'}, 'sortOrder': 1}]","{'code': 'notAssessedVAT', 'name': 'НДС не облагается'}",,Астраханская область,,1200.0,30:05:200103:73,https://torgi.gov.ru/new/public/lots/lot/22000149720000000057_1,"([45.84778535559946, 48.11772916408108], 'Российская Федерация, Астраханская область, муниципальный район Камызякский, городское поселение поселок Кировский, рабочий поселок Кировский, улица Кирова, земельный участок 30')","[45.84778535559946, 48.11772916408108]","Российская Федерация, Астраханская область, муниципальный район Камызякский, городское поселение поселок Кировский, рабочий поселок Кировский, улица Кирова, земельный участок 30",2025-01-28 10:00:00+00:00,2024-12-25 09:00:00+00:00,http://sale.zakazrf.ru/NotificationEXLot/id/63940,23160.0,500000.0,"[('Постановление 293 от 23.12.2024 г..pdf', 'https://torgi.gov.ru/new/file-store/v1/676a4bd4d09dc150429cb2c5'), ('Выписка Кирова, зу 30.pdf', 'https://torgi.gov.ru/new/file-store/v1/676a4bdfd09dc150429cb2c8'), ('Схема земельного участка Кирова ЗУ 30.jpg', 'https://torgi.gov.ru/new/file-store/v1/676a4b9526093e159b44dac8')]","https://pkk.rosreestr.ru/#/search/48.11772916408108,45.84778535559946/19/@5w3tqw5ca?text=30:5:200103:73&opened=30:5:200103:73"
22000010370000000353_1,22000010370000000353,1,APPLICATIONS_SUBMISSION,Аренда и продажа земельных участков,Электронный аукцион,земельный участок,"земельный участок с кадастровым номером – 30:11:130202:3791, площадью – 40 кв.м., из категории земель: земли населенных пунктов, расположенный: Астраханская область, Черноярский район, с. Черный Яр, ул. им. Маршала Жукова, с видом разрешенного использования – благоустройство территории",2025-01-23 17:00:00+00:00,https://torgi.gov.ru/new/file-store/v1/676a4d0926093e159b44e1c9?disposition=inline,643,Земли населенных пунктов,2024-12-24 09:57:09.079000+00:00,МСК+1,240,False,False,False,2024-12-24T05:58:21.254Z,hint1_ZK,sale,3000.0,ETP_SBAST,"[{'code': 'DA_tradingFeatures_EA(ZK)', 'fullName': 'Торги проводятся с учетом особенностей в соответствии с 161-ФЗ от 24.07.2008 «О содействии развитию жилищного строительства»', 'value': False, 'attributeType': 'Checker', 'group': {'code': 'N250', 'name': '1.2 Извещение_основные_сведения', 'displayGroupType': 'NOTICE'}, 'sortOrder': 1}]","{'code': 'notAssessedVAT', 'name': 'НДС не облагается'}",,Астраханская область,,40.0,30:11:130202:3791,https://torgi.gov.ru/new/public/lots/lot/22000010370000000353_1,"([48.06244061841482, 46.103827069547904], 'Российская Федерация, Астраханская область, Черноярский район, с. Черный Яр, ул. им Маршала Жукова')","[48.06244061841482, 46.103827069547904]","Российская Федерация, Астраханская область, Черноярский район, с. Черный Яр, ул. им Маршала Жукова",2025-01-29 11:00:00+00:00,2024-12-25 08:00:00+00:00,https://utp.sberbank-ast.ru/AP/NBT/PurchaseView/21/0/0/2640864,90.0,600.0,"[('ЗАЯВКА НА УЧАСТИЕ В ЭЛЕКТРОННОМ  АУКЦИОНЕ.docx', 'https://torgi.gov.ru/new/file-store/v1/676a4d0d26093e159b44e1cf'), ('ПРОЕКТ ДОГОВОРА купли-продажи.docx', 'https://torgi.gov.ru/new/file-store/v1/676a4d101754143a1cae0d94'), ('РАСПОРЯЖЕНИЕ .docx', 'https://torgi.gov.ru/new/file-store/v1/676a4d121754143a1cae0d97'), ('Scan.jpg', 'https://torgi.gov.ru/new/file-store/v1/676a4d0926093e159b44e1c9')]","https://pkk.rosreestr.ru/#/search/46.103827069547904,48.06244061841482/19/@5w3tqw5ca?text=30:11:130202:3791&opened=30:11:130202:3791"
21000017080000000892_1,21000017080000000892,1,APPLICATIONS_SUBMISSION,Аренда и продажа земельных участков,Электронный аукцион,"аукцион на право заключения договора купли-продажи земельного участка, расположенного по адресу: Российская Федерация, Астраханская область, Приволжский муниципальный район, сельское поселение Яксатовский сельсовет, село Яксатово, переулок Тихий, земельный участок 12Б",земельный участок с разрешенным использованием для индивидуального жилищного строительства,2025-01-22 17:00:00+00:00,https://torgi.gov.ru/new/file-store/v1/676976c526093e159b44a708?disposition=inline,643,Земли населенных пунктов,2024-12-23 18:43:33.455000+00:00,МСК+1,240,False,False,False,2024-12-23T14:44:03.585Z,hint1_ZK,sale,304864.16,ETP_RAD,"[{'code': 'DA_tradingFeatures_EA(ZK)', 'fullName': 'Торги проводятся с учетом особенностей в соответствии с 161-ФЗ от 24.07.2008 «О содействии развитию жилищного строительства»', 'value': False, 'attributeType': 'Checker', 'group': {'code': 'N250', 'name': '1.2 Извещение_основные_сведения', 'displayGroupType': 'NOTICE'}, 'sortOrder': 1}]","{'code': 'notAssessedVAT', 'name': 'НДС не облагается'}",,Астраханская область,,832.0,30:09:140101:1469,https://torgi.gov.ru/new/public/lots/lot/21000017080000000892_1,"([46.25550593004019, 48.005549023905736], 'Российская Федерация, Астраханская область, муниципальный район Приволжский, сельское поселение Яксатовский сельсовет, село Яксатово, переулок Тихий, земельный участок 12Б\t')","[46.25550593004019, 48.005549023905736]","Российская Федерация, Астраханская область, муниципальный район Приволжский, сельское поселение Яксатовский сельсовет, село Яксатово, переулок Тихий, земельный участок 12Б	",2025-01-24 10:00:00+00:00,2024-12-24 09:00:00+00:00,https://catalog.lot-online.ru/notice/21000017080000000892/1,9145.0,60972.0,"[('нет фото.jpg', 'https://torgi.gov.ru/new/file-store/v1/676976c526093e159b44a708')]","https://pkk.rosreestr.ru/#/search/48.005549023905736,46.25550593004019/19/@5w3tqw5ca?text=30:9:140101:1469&opened=30:9:140101:1469"
21000017080000000891_1,21000017080000000891,1,APPLICATIONS_SUBMISSION,Аренда и продажа земельных участков,Электронный аукцион,"аукцион на право заключения договора аренды земельного участка, расположенного по адресу: Российская Федерация, Астраханская область, муниципальный район Приволжский, сельское поселение Трехпротокский сельсовет, территория Кулаковский промузел, улица Рождественского, земельный участок 21П",земельный участок с разрешенным использованием: склады,2025-01-22 17:00:00+00:00,https://torgi.gov.ru/new/file-store/v1/676971a626093e159b44a125?disposition=inline,643,Земли специального назначения,2024-12-23 18:22:31.807000+00:00,МСК+1,240,False,False,False,2024-12-23T14:22:51.06Z,hint1_ZK,rent,14225.0,ETP_RAD,"[{'code': 'DA_tradingFeatures_EA(ZK)', 'fullName': 'Торги проводятся с учетом особенностей в соответствии с 161-ФЗ от 24.07.2008 «О содействии развитию жилищного строительства»', 'value': False, 'attributeType': 'Checker', 'group': {'code': 'N250', 'name': '1.2 Извещение_основные_сведения', 'displayGroupType': 'NOTICE'}, 'sortOrder': 1}]","{'code': 'notAssessedVAT', 'name': 'НДС не облагается'}",,Астраханская область,5 (пять) лет,813.0,30:09:090211:1251,https://torgi.gov.ru/new/public/lots/lot/21000017080000000891_1,"([46.313503077943736, 48.05938580185751], 'Российская Федерация, Астраханская область, муниципальный район Приволжский, сельское поселение Трехпротокский сельсовет, территория Кулаковский промузел, улица Рождественского, земельный участок 21П')","[46.313503077943736, 48.05938580185751]","Российская Федерация, Астраханская область, муниципальный район Приволжский, сельское поселение Трехпротокский сельсовет, территория Кулаковский промузел, улица Рождественского, земельный участок 21П",2025-01-24 10:00:00+00:00,2024-12-24 09:00:00+00:00,https://catalog.lot-online.ru/notice/21000017080000000891/1,426.0,2845.0,"[('нет фото.jpg', 'https://torgi.gov.ru/new/file-store/v1/676971a626093e159b44a125')]","https://pkk.rosreestr.ru/#/search/48.05938580185751,46.313503077943736/19/@5w3tqw5ca?text=30:9:90211:1251&opened=30:9:90211:1251"
21000017080000000890_1,21000017080000000890,1,APPLICATIONS_SUBMISSION,Аренда и продажа земельных участков,Электронный аукцион,"аукцион на право заключения договора аренды земельного участка, расположенного по адресу: Российская Федерация, Астраханская область, Приволжский муниципальный район, муниципальное образование ""Яксатовский сельсовет"", в 2,5 км северо-восточнее автодороги Астрахань-Камызяк, в 700 м юго-восточнее ерика Кигач",земельный участок с разрешенным использованием: животноводство,2025-01-22 17:00:00+00:00,https://torgi.gov.ru/new/file-store/v1/676965e9029b367c711b22b7?disposition=inline,643,Земли сельскохозяйственного назначения,2024-12-23 17:34:07.144000+00:00,МСК+1,240,False,False,False,2024-12-23T13:34:24.55Z,hint1_ZK,rent,9543.0,ETP_RAD,"[{'code': 'DA_tradingFeatures_EA(ZK)', 'fullName': 'Торги проводятся с учетом особенностей в соответствии с 161-ФЗ от 24.07.2008 «О содействии развитию жилищного строительства»', 'value': False, 'attributeType': 'Checker', 'group': {'code': 'N250', 'name': '1.2 Извещение_основные_сведения', 'displayGroupType': 'NOTICE'}, 'sortOrder': 1}]","{'code': 'notAssessedVAT', 'name': 'НДС не облагается'}",,Астраханская область,5 (пять) лет,286041.0,30:09:150501:147,https://torgi.gov.ru/new/public/lots/lot/21000017080000000890_1,"([46.1860489753137, 48.06536862687471], 'Российская Федерация, Астраханская область, Приволжский муниципальный район, муниципальное образование ""Яксатовский сельсовет"", в 2,5 км северо-восточнее автодороги Астрахань-Камызяк, в 700 м юго-восточнее ерика Кигач')","[46.1860489753137, 48.06536862687471]","Российская Федерация, Астраханская область, Приволжский муниципальный район, муниципальное образование ""Яксатовский сельсовет"", в 2,5 км северо-восточнее автодороги Астрахань-Камызяк, в 700 м юго-восточнее ерика Кигач",2025-01-24 10:00:00+00:00,2024-12-24 09:00:00+00:00,https://catalog.lot-online.ru/notice/21000017080000000890/1,286.0,1908.0,"[('нет фото.jpg', 'https://torgi.gov.ru/new/file-store/v1/676965e9029b367c711b22b7')]","https://pkk.rosreestr.ru/#/search/48.06536862687471,46.1860489753137/19/@5w3tqw5ca?text=30:9:150501:147&opened=30:9:150501:147"
